Millis,Acce_X,Acce_Y,Acce_Z,Gyro_X,Gyro_Y,Gyro_Z,Temp
43457,-0.06,-0.08,1.24,-6.20,4.99,-5.27,30.22
43467,-0.07,-0.07,1.25,-3.36,0.06,-5.28,30.27
43477,-0.09,-0.06,1.26,-0.96,-1.40,-4.32,30.27
43487,-0.09,-0.04,1.25,3.22,-0.47,-1.24,30.37
43497,-0.09,-0.03,1.24,6.64,1.98,2.15,30.37
43507,-0.07,-0.02,1.23,8.23,3.74,3.86,30.37
43517,-0.08,-0.01,1.21,7.97,3.76,4.93,30.18
43527,-0.09,0.00,1.20,8.03,0.79,6.43,30.32
43537,-0.08,-0.00,1.21,8.38,-2.37,6.49,30.22
43547,-0.06,-0.01,1.16,8.02,-8.26,5.85,30.32
43557,-0.04,-0.01,1.13,9.11,-11.85,6.23,30.32
43567,-0.02,-0.00,1.09,10.49,-11.88,6.47,30.32
43577,0.03,-0.00,1.05,11.65,-8.52,6.23,30.32
43587,0.05,0.01,1.01,11.57,-3.69,4.66,30.37
43597,0.06,0.01,0.98,10.64,-0.60,2.82,30.27
43607,0.04,0.01,0.96,8.53,1.34,-0.09,30.37
43617,0.02,0.03,0.95,6.06,1.47,-2.23,30.18
43627,-0.00,0.04,0.94,4.35,-1.15,-2.89,30.27
43637,-0.03,0.05,0.93,4.34,-7.31,-2.89,30.18
43647,-0.03,0.05,0.91,5.24,-14.73,-3.01,30.22
43657,-0.01,0.04,0.89,6.02,-20.23,-2.79,30.32
43667,-0.00,0.04,0.84,6.29,-25.51,-2.40,30.32
43677,0.02,0.04,0.80,5.83,-28.43,-3.37,30.22
43687,0.03,0.05,0.76,4.95,-26.47,-4.49,30.27
43697,0.03,0.06,0.72,2.84,-22.34,-4.76,30.22
43707,0.04,0.07,0.65,-0.56,-16.64,-4.75,30.27
43717,0.02,0.09,0.63,-6.37,-12.95,-3.54,30.27
43727,0.00,0.11,0.64,-13.15,-10.26,-2.64,30.27
43737,-0.03,0.09,0.66,-18.08,-12.66,-1.92,30.37
43747,-0.02,0.07,0.69,-20.76,-12.21,-0.82,30.27
43757,-0.03,0.06,0.69,-22.89,-10.99,0.82,30.27
43767,-0.03,0.04,0.74,-22.08,-9.01,2.93,30.22
43777,-0.03,0.03,0.75,-20.37,-9.83,6.03,30.22
43787,-0.02,0.03,0.74,-22.95,-10.61,9.04,30.22
43797,-0.01,0.05,0.72,-28.18,-13.60,11.22,30.32
43807,0.01,0.05,0.71,-34.11,-17.65,13.40,30.32
43817,0.03,0.04,0.68,-41.47,-19.62,16.17,30.37
43827,0.06,0.03,0.68,-49.22,-19.42,18.32,30.37
43837,0.09,0.00,0.68,-54.89,-15.92,20.18,30.27
43847,0.13,-0.03,0.68,-60.23,-7.10,20.60,30.27
43857,0.15,-0.08,0.73,-62.24,1.44,19.66,30.27
43867,0.13,-0.11,0.79,-62.55,8.17,17.54,30.27
43877,0.11,-0.13,0.83,-63.16,9.16,16.75,30.27
43887,0.09,-0.14,0.86,-63.31,9.04,15.13,30.32
43897,0.07,-0.14,0.88,-62.82,4.52,14.37,30.22
43907,0.07,-0.13,0.85,-62.79,-0.29,14.14,30.32
43917,0.10,-0.14,0.80,-63.79,-2.99,14.55,30.32
43927,0.13,-0.16,0.75,-66.14,-2.49,14.78,30.22
43937,0.16,-0.19,0.72,-69.69,0.17,13.54,30.22
43947,0.18,-0.23,0.71,-74.61,6.12,11.60,30.27
43957,0.17,-0.24,0.73,-78.26,12.60,10.11,30.37
43967,0.16,-0.26,0.77,-80.47,19.76,8.64,30.27
43977,0.12,-0.28,0.82,-81.42,24.73,7.16,30.37
43987,0.07,-0.30,0.87,-81.24,25.73,6.38,30.27
43997,0.02,-0.33,0.90,-79.89,20.93,6.70,30.37
44007,-0.01,-0.32,0.94,-79.15,11.30,8.23,30.22
44017,-0.02,-0.33,0.91,-77.92,1.92,10.43,30.22
44027,0.00,-0.35,0.88,-76.96,-5.86,13.47,30.22
44037,0.04,-0.40,0.85,-77.36,-10.95,14.70,30.27
44047,0.08,-0.44,0.81,-79.45,-12.92,13.31,30.22
44057,0.11,-0.45,0.80,-81.92,-14.14,11.08,30.37
44067,0.11,-0.46,0.80,-85.30,-12.75,9.77,30.27
44077,0.11,-0.46,0.81,-88.14,-11.05,8.89,30.27
44087,0.10,-0.50,0.85,-89.19,-10.75,8.23,30.27
44097,0.07,-0.53,0.89,-88.03,-14.53,7.45,30.18
44107,0.04,-0.59,0.92,-82.08,-25.19,6.11,30.27
44117,0.03,-0.61,0.92,-78.43,-35.48,2.05,30.32
44127,0.00,-0.64,0.92,-75.62,-50.69,0.56,30.22
44137,0.02,-0.62,0.83,-72.66,-57.88,1.42,30.32
44147,0.06,-0.59,0.76,-74.41,-56.89,3.92,30.22
44157,0.09,-0.59,0.69,-78.78,-50.50,6.49,30.22
44167,0.08,-0.58,0.69,-87.15,-39.42,9.25,30.27
44177,0.06,-0.63,0.75,-92.60,-30.29,12.43,30.27
44187,0.04,-0.64,0.76,-94.69,-22.89,17.22,30.27
44197,0.06,-0.65,0.75,-94.73,-15.65,21.21,30.27
44207,0.04,-0.67,0.78,-98.73,-11.01,25.15,30.27
44217,0.05,-0.70,0.80,-101.86,-9.50,28.56,30.27
44227,0.05,-0.75,0.82,-106.20,-11.25,30.93,30.37
44237,0.07,-0.78,0.85,-107.91,-13.94,32.14,30.22
44247,0.09,-0.82,0.86,-105.74,-18.38,32.64,30.22
44257,0.13,-0.85,0.84,-103.01,-22.00,31.69,30.32
44267,0.17,-0.85,0.85,-100.87,-23.66,28.87,30.22
44277,0.21,-0.87,0.84,-98.49,-25.80,24.47,30.22
44287,0.24,-0.86,0.78,-97.91,-23.59,19.94,30.37
44297,0.26,-0.86,0.73,-97.71,-16.93,17.22,30.27
44307,0.24,-0.87,0.71,-99.27,-6.67,16.11,30.27
44317,0.23,-0.92,0.72,-101.24,1.01,15.34,30.37
44327,0.18,-0.97,0.76,-104.41,2.17,13.10,30.37
44337,0.13,-1.00,0.81,-107.05,-7.68,7.89,30.27
44347,0.08,-1.03,0.82,-106.17,-23.44,4.14,30.32
44357,0.09,-1.02,0.77,-99.54,-34.44,3.62,30.32
44367,0.10,-1.02,0.69,-92.06,-33.97,6.47,30.32
44377,0.12,-1.03,0.59,-87.48,-28.09,10.23,30.41
44387,0.13,-1.01,0.54,-88.40,-17.83,12.03,30.27
44397,0.13,-1.03,0.50,-94.12,-4.75,10.00,30.32
44407,0.07,-1.04,0.49,-101.13,-1.94,7.45,30.27
44417,-0.00,-1.06,0.48,-106.96,-8.49,7.56,30.37
44427,-0.07,-1.09,0.50,-110.58,-22.32,8.60,30.27
44437,-0.11,-1.12,0.50,-113.13,-37.95,10.38,30.27
44447,-0.14,-1.15,0.49,-114.64,-56.03,12.72,30.27
44457,-0.14,-1.16,0.44,-114.58,-73.73,16.06,30.22
44467,-0.10,-1.15,0.35,-115.30,-83.68,20.37,30.22
44477,-0.07,-1.17,0.28,-116.92,-85.57,25.94,30.22
44487,-0.02,-1.17,0.20,-117.42,-77.48,32.78,30.32
44497,0.02,-1.17,0.15,-117.85,-61.85,38.66,30.32
44507,0.09,-1.19,0.08,-122.29,-42.92,43.19,30.32
44517,0.12,-1.20,0.05,-128.64,-22.92,45.77,30.27
44527,0.12,-1.21,0.05,-136.66,-4.35,46.47,30.27
44537,0.11,-1.24,0.07,-143.31,11.45,46.27,30.27
44547,0.08,-1.26,0.10,-149.16,22.64,46.24,30.18
44557,0.04,-1.28,0.18,-152.02,25.34,45.18,30.27
44567,-0.03,-1.33,0.18,-153.02,21.33,46.76,30.27
44577,-0.04,-1.35,0.25,-155.08,20.21,47.98,30.22
44587,-0.09,-1.36,0.31,-153.37,18.38,47.24,30.32
44597,-0.09,-1.39,0.31,-149.92,16.12,46.82,30.22
44607,-0.12,-1.38,0.31,-145.56,11.53,45.28,30.27
44617,-0.12,-1.38,0.27,-141.51,6.95,42.96,30.32
44627,-0.11,-1.36,0.21,-136.72,-0.23,41.56,30.27
44637,-0.06,-1.32,0.09,-135.40,-2.95,39.24,30.27
44647,-0.04,-1.29,0.02,-137.91,-2.21,37.60,30.18
44657,-0.01,-1.29,-0.03,-142.15,-1.44,38.79,30.18
44667,0.00,-1.29,-0.06,-147.15,0.63,41.13,30.27
44677,-0.01,-1.28,-0.08,-152.58,4.03,42.60,30.22
44687,-0.03,-1.29,-0.07,-156.32,9.15,44.32,30.32
44697,-0.06,-1.33,-0.06,-156.35,14.26,45.56,30.22
44707,-0.09,-1.35,-0.02,-153.40,14.96,47.54,30.32
44717,-0.12,-1.37,0.01,-148.34,11.31,50.23,30.22
44727,-0.13,-1.40,0.06,-141.01,5.33,51.56,30.32
44737,-0.11,-1.42,0.05,-132.66,-4.92,50.82,30.27
44747,-0.06,-1.41,0.02,-126.24,-16.18,47.50,30.37
44757,-0.02,-1.38,-0.05,-121.16,-27.15,43.37,30.27
44767,0.03,-1.33,-0.14,-117.54,-32.90,40.02,30.18
44777,0.09,-1.29,-0.24,-116.67,-33.69,37.42,30.37
44787,0.14,-1.28,-0.31,-120.75,-30.87,34.20,30.37
44797,0.17,-1.29,-0.34,-126.93,-26.56,27.74,30.22
44807,0.15,-1.28,-0.35,-133.66,-21.31,21.07,30.32
44817,0.13,-1.29,-0.30,-133.53,-19.25,14.21,30.22
44827,0.09,-1.31,-0.28,-126.50,-15.44,8.08,30.27
44837,0.05,-1.31,-0.27,-114.93,-11.50,2.52,30.22
44847,0.01,-1.28,-0.29,-103.92,-3.27,1.18,30.37
44857,-0.03,-1.22,-0.31,-97.69,7.77,4.26,30.27
44867,-0.10,-1.20,-0.31,-94.24,13.73,9.66,30.37
44877,-0.11,-1.19,-0.32,-92.60,16.85,15.88,30.27
44887,-0.07,-1.17,-0.33,-94.26,16.50,18.20,30.27
44897,-0.03,-1.17,-0.36,-95.91,11.74,15.68,30.37
44907,0.00,-1.17,-0.37,-98.89,1.85,6.32,30.32
44917,-0.01,-1.15,-0.38,-100.20,-7.31,-4.37,30.32
44927,-0.04,-1.11,-0.41,-101.31,-10.32,-8.90,30.22
44937,-0.03,-1.08,-0.45,-98.37,-2.96,-3.95,30.32
44947,-0.05,-1.08,-0.43,-94.31,6.98,2.49,30.22
44957,-0.03,-1.06,-0.50,-91.44,23.19,12.44,30.27
44967,-0.05,-1.05,-0.48,-90.82,40.56,17.80,30.18
44977,-0.06,-1.04,-0.46,-91.27,45.62,19.69,30.18
44987,-0.09,-1.03,-0.42,-93.39,43.02,18.96,30.27
44997,-0.11,-1.02,-0.38,-95.45,34.47,14.70,30.18
45007,-0.13,-1.03,-0.34,-94.67,22.99,9.86,30.27
45017,-0.15,-1.02,-0.32,-92.11,11.91,7.89,30.27
45027,-0.13,-1.02,-0.36,-86.46,8.98,10.05,30.32
45037,-0.11,-1.00,-0.38,-81.57,9.59,12.41,30.22
45047,-0.08,-0.98,-0.39,-75.02,9.27,14.56,30.22
45057,-0.04,-0.95,-0.42,-71.05,10.26,14.63,30.32
45067,-0.01,-0.94,-0.45,-67.45,10.44,13.68,30.32
45077,0.00,-0.92,-0.47,-65.27,14.84,11.92,30.32
45087,-0.01,-0.90,-0.48,-63.79,16.43,11.44,30.18
45097,-0.04,-0.91,-0.47,-61.30,15.21,9.48,30.27
45107,-0.07,-0.86,-0.45,-57.44,9.19,5.91,30.37
45117,-0.09,-0.85,-0.46,-55.39,-1.91,3.30,30.27
45127,-0.11,-0.86,-0.48,-54.21,-16.53,1.76,30.37
45137,-0.08,-0.84,-0.54,-53.24,-25.25,0.98,30.22
45147,-0.03,-0.83,-0.57,-53.24,-23.47,3.02,30.22
45157,0.01,-0.80,-0.59,-52.64,-13.25,7.36,30.22
45167,0.05,-0.79,-0.62,-53.11,7.19,10.44,30.32
45177,0.02,-0.79,-0.58,-53.76,23.16,12.43,30.18
45187,-0.04,-0.79,-0.53,-55.08,29.18,13.83,30.22
45197,-0.07,-0.82,-0.47,-54.98,23.42,12.32,30.27
45207,-0.10,-0.83,-0.43,-52.81,13.50,8.49,30.27
45217,-0.10,-0.84,-0.43,-47.98,-0.53,3.07,30.27
45227,-0.11,-0.83,-0.46,-43.51,-9.73,-0.98,30.37
45237,-0.11,-0.79,-0.48,-40.27,-15.44,-2.32,30.27
45247,-0.12,-0.77,-0.51,-39.73,-16.23,-1.40,30.32
45257,-0.12,-0.78,-0.53,-40.44,-16.70,0.53,30.22
45267,-0.11,-0.79,-0.54,-40.06,-16.55,4.18,30.22
45277,-0.08,-0.80,-0.52,-36.84,-14.12,5.39,30.22
45287,-0.06,-0.79,-0.55,-32.96,-10.52,6.12,30.22
45297,-0.04,-0.80,-0.53,-29.44,-7.04,5.51,30.22
45307,-0.05,-0.76,-0.54,-25.62,-4.96,5.76,30.27
45317,-0.05,-0.74,-0.55,-23.92,-1.21,6.21,30.27
45327,-0.06,-0.74,-0.57,-23.62,-0.69,5.65,30.27
45337,-0.08,-0.72,-0.57,-24.55,-1.24,3.88,30.27
45347,-0.09,-0.72,-0.58,-24.89,-5.37,2.99,30.27
45357,-0.08,-0.72,-0.60,-24.79,-8.75,2.44,30.22
45367,-0.05,-0.72,-0.59,-24.44,-10.06,2.49,30.32
45377,-0.04,-0.71,-0.60,-24.02,-5.89,3.37,30.22
45387,-0.04,-0.74,-0.58,-21.85,0.67,4.96,30.22
45397,-0.04,-0.76,-0.57,-18.44,8.31,5.50,30.18
45407,-0.05,-0.76,-0.54,-15.02,11.08,3.65,30.32
45417,-0.09,-0.75,-0.52,-11.44,8.53,0.82,30.18
45427,-0.08,-0.74,-0.53,-7.60,4.46,-0.75,30.27
45437,-0.07,-0.73,-0.56,-4.15,0.41,-1.05,30.37
45447,-0.04,-0.75,-0.56,-2.69,1.57,-2.11,30.27
45457,-0.04,-0.72,-0.57,-2.81,4.46,-2.92,30.27
45467,-0.06,-0.72,-0.56,-3.28,5.08,-4.21,30.32
45477,-0.08,-0.71,-0.54,-3.62,3.42,-5.74,30.22
45487,-0.11,-0.72,-0.52,-2.47,1.37,-7.16,30.32
45497,-0.13,-0.71,-0.51,0.76,-0.21,-7.83,30.32
45507,-0.13,-0.70,-0.52,4.95,0.53,-6.67,30.22
45517,-0.13,-0.70,-0.53,7.74,2.40,-4.56,30.32
45527,-0.12,-0.71,-0.54,9.04,4.95,-2.20,30.27
45537,-0.10,-0.72,-0.56,10.21,6.56,-1.80,30.27
45547,-0.10,-0.74,-0.54,11.76,5.40,-4.99,30.27
45557,-0.12,-0.74,-0.55,14.52,0.64,-8.31,30.37
45567,-0.14,-0.71,-0.59,18.67,-2.02,-8.78,30.27
45577,-0.15,-0.70,-0.61,21.57,-1.66,-8.12,30.27
45587,-0.15,-0.69,-0.64,21.31,0.87,-5.63,30.32
45597,-0.15,-0.70,-0.64,18.89,3.07,-4.35,30.22
45607,-0.16,-0.72,-0.62,18.50,1.82,-4.89,30.22
45617,-0.18,-0.70,-0.64,19.30,-2.75,-6.56,30.32
45627,-0.20,-0.69,-0.68,21.66,-6.84,-6.41,30.22
45637,-0.20,-0.68,-0.73,23.21,-6.79,-3.86,30.22
45647,-0.21,-0.66,-0.80,23.28,-1.24,-1.33,30.27
45657,-0.24,-0.64,-0.82,20.21,4.40,1.56,30.27
45667,-0.24,-0.65,-0.85,16.03,8.34,7.11,30.27
45677,-0.24,-0.63,-0.87,13.19,14.03,10.60,30.37
45687,-0.26,-0.61,-0.88,10.60,14.82,11.97,30.27
45697,-0.31,-0.60,-0.90,7.92,11.86,13.59,30.27
45707,-0.35,-0.60,-0.91,4.44,6.29,15.05,30.22
45717,-0.35,-0.59,-0.89,1.07,0.81,18.66,30.22
45727,-0.32,-0.59,-0.88,-2.73,-0.84,24.12,30.22
45737,-0.28,-0.62,-0.85,-4.81,2.75,29.95,30.32
45747,-0.24,-0.67,-0.81,-4.81,7.48,32.73,30.27
45757,-0.20,-0.71,-0.73,-2.78,3.16,31.83,30.22
45767,-0.17,-0.76,-0.67,1.04,-2.37,27.85,30.27
45777,-0.14,-0.77,-0.64,3.82,-6.50,22.24,30.18
45787,-0.14,-0.76,-0.62,6.29,-8.47,17.44,30.18
45797,-0.13,-0.76,-0.59,8.50,-8.34,16.60,30.27
45807,-0.11,-0.77,-0.56,8.70,-6.31,16.34,30.18
45817,-0.07,-0.78,-0.53,10.70,-3.30,15.63,30.27
45827,-0.05,-0.80,-0.48,12.21,-1.47,13.85,30.22
45837,-0.03,-0.82,-0.42,14.66,-1.80,10.00,30.22
45847,-0.03,-0.83,-0.38,17.53,-5.02,6.84,30.22
45857,-0.01,-0.85,-0.36,21.47,-5.50,3.95,30.22
45867,-0.01,-0.87,-0.34,24.53,-3.18,1.89,30.32
45877,-0.04,-0.88,-0.30,27.98,3.01,-0.32,30.18
45887,-0.08,-0.91,-0.27,34.63,4.99,-1.05,30.18
45897,-0.11,-0.90,-0.24,41.54,3.19,-1.16,30.27
45907,-0.12,-0.90,-0.26,49.48,-1.83,-1.47,30.18
45917,-0.09,-0.91,-0.31,58.60,-8.53,-4.05,30.18
45927,-0.07,-0.89,-0.36,65.50,-14.15,-6.70,30.18
45937,-0.03,-0.89,-0.42,73.62,-13.08,-7.15,30.22
45947,0.02,-0.93,-0.45,85.34,-1.44,-8.15,30.32
45957,0.03,-0.99,-0.45,99.86,19.44,-7.30,30.22
45967,0.03,-1.01,-0.45,116.81,40.49,-2.56,30.13
45977,0.01,-1.02,-0.46,132.40,54.06,-0.81,30.22
45987,-0.02,-1.01,-0.48,141.80,65.13,-2.99,30.22
45997,-0.12,-0.93,-0.49,140.87,54.18,-8.15,30.27
46007,-0.08,-0.92,-0.58,128.63,36.92,-12.92,30.27
46017,-0.09,-0.88,-0.60,113.02,20.95,-17.79,30.18
46027,-0.09,-0.81,-0.67,101.33,10.05,-20.72,30.18
46037,-0.08,-0.80,-0.68,87.69,7.16,-20.66,30.18
46047,-0.09,-0.79,-0.66,75.62,6.87,-17.25,30.27
46057,-0.09,-0.81,-0.59,65.73,11.76,-10.44,30.22
46067,-0.10,-0.87,-0.46,60.73,16.73,-3.85,30.22
46077,-0.08,-0.94,-0.36,60.46,19.62,1.57,30.22
46087,-0.10,-1.00,-0.26,57.27,16.40,2.95,30.13
46097,-0.06,-1.07,-0.17,59.47,13.59,1.71,30.27
46107,-0.08,-1.15,-0.09,63.68,7.47,-2.06,30.22
46117,-0.08,-1.16,-0.08,68.17,-1.51,-6.12,30.18
46127,-0.04,-1.13,-0.12,72.81,-7.28,-7.68,30.18
46137,0.01,-1.13,-0.18,75.22,-5.37,-5.88,30.18
46147,0.03,-1.13,-0.19,75.24,-3.21,-4.93,30.27
46157,0.05,-1.14,-0.20,73.86,-0.18,-6.44,30.18
46167,0.07,-1.15,-0.19,74.31,-1.28,-9.59,30.22
46177,0.08,-1.16,-0.19,76.82,-2.61,-14.06,30.22
46187,0.08,-1.17,-0.18,80.47,-0.35,-18.12,30.13
46197,0.06,-1.18,-0.17,85.57,4.81,-18.70,30.22
46207,0.05,-1.19,-0.14,90.37,10.95,-17.22,30.13
46217,0.03,-1.23,-0.13,92.99,11.57,-16.20,30.13
46227,0.03,-1.26,-0.09,93.19,6.84,-17.92,30.18
46237,0.03,-1.28,-0.07,94.60,-1.53,-21.76,30.18
46247,0.03,-1.29,-0.09,97.07,-10.67,-25.80,30.18
46257,0.05,-1.29,-0.11,100.44,-16.63,-28.87,30.27
46267,0.08,-1.27,-0.17,104.08,-15.54,-29.37,30.18
46277,0.12,-1.26,-0.22,108.27,-4.85,-28.93,30.22
46287,0.13,-1.26,-0.23,108.29,8.37,-29.57,30.22
46297,0.12,-1.25,-0.22,106.06,19.30,-29.91,30.22
46307,0.09,-1.25,-0.18,103.62,25.71,-30.38,30.22
46317,0.05,-1.31,-0.12,103.42,23.79,-33.30,30.27
46327,0.01,-1.33,-0.08,104.15,16.85,-37.13,30.13
46337,-0.02,-1.33,-0.03,104.23,6.35,-39.69,30.18
46347,-0.05,-1.35,-0.01,103.83,-4.18,-42.27,30.18
46357,-0.06,-1.36,-0.00,104.76,-14.21,-44.52,30.18
46367,-0.05,-1.36,-0.03,105.37,-22.27,-47.60,30.18
46377,-0.04,-1.34,-0.05,103.86,-28.87,-51.19,30.18
46387,-0.04,-1.29,-0.07,103.02,-31.95,-55.94,30.13
46397,-0.05,-1.27,-0.04,96.23,-33.21,-60.58,30.22
46407,-0.13,-1.28,0.03,88.50,-38.21,-63.86,30.13
46417,-0.21,-1.34,0.16,81.30,-50.53,-67.89,30.13
46427,-0.30,-1.50,0.33,81.05,-76.08,-76.18,30.13
46437,-0.44,-1.53,0.51,84.31,-123.60,-81.62,30.27
46447,-0.36,-1.49,0.43,106.37,-161.45,-81.51,30.18
46457,-0.29,-1.38,0.26,129.98,-185.88,-74.12,30.18
46467,0.02,-1.26,-0.06,145.27,-172.61,-55.80,30.27
46477,0.35,-1.18,-0.31,141.24,-107.02,-40.66,30.18
46487,0.51,-1.15,-0.34,118.92,-26.27,-32.72,30.18
46497,0.54,-1.20,-0.24,97.88,48.15,-32.46,30.22
46507,0.46,-1.25,-0.12,83.91,99.37,-35.07,30.22
46517,0.27,-1.32,0.07,78.43,113.79,-42.75,30.22
46527,0.08,-1.37,0.27,87.19,92.87,-54.47,30.22
46537,-0.07,-1.34,0.35,97.92,58.66,-63.82,30.18
46547,-0.16,-1.28,0.34,105.04,25.44,-65.92,30.13
46557,-0.18,-1.24,0.32,115.27,-7.79,-56.92,30.27
46567,-0.05,-1.18,0.21,117.82,-16.41,-47.88,30.18
46577,0.07,-1.12,0.09,116.72,-8.89,-39.98,30.18
46587,0.16,-1.08,0.03,112.37,7.54,-33.51,30.18
46597,0.20,-1.06,0.02,102.70,26.55,-31.15,30.18
46607,0.21,-1.06,0.06,92.27,41.89,-30.52,30.13
46617,0.17,-1.07,0.15,83.86,47.11,-30.79,30.13
46627,0.12,-1.07,0.23,80.98,45.53,-29.92,30.13
46637,0.12,-1.09,0.30,80.14,43.30,-28.90,30.13
46647,0.14,-1.10,0.36,82.34,37.82,-28.35,30.13
46657,0.14,-1.11,0.42,85.48,33.04,-29.27,30.13
46667,0.12,-1.11,0.45,89.08,29.30,-30.08,30.18
46677,0.13,-1.09,0.45,92.72,25.19,-31.16,30.18
46687,0.11,-1.05,0.45,94.53,21.94,-31.30,30.27
46697,0.11,-1.01,0.41,93.39,18.93,-29.85,30.18
46707,0.11,-0.97,0.42,91.27,16.23,-28.40,30.18
46717,0.11,-0.95,0.42,89.02,14.05,-25.82,30.13
46727,0.12,-0.91,0.42,85.74,12.76,-23.50,30.13
46737,0.14,-0.89,0.42,82.38,9.15,-22.81,30.22
46747,0.17,-0.87,0.43,77.86,5.13,-22.89,30.13
46757,0.20,-0.85,0.41,71.60,3.60,-23.97,30.18
46767,0.23,-0.85,0.42,66.08,5.88,-25.22,30.13
46777,0.25,-0.87,0.45,63.73,13.86,-25.25,30.18
46787,0.22,-0.88,0.50,63.28,25.28,-23.33,30.18
46797,0.21,-0.88,0.55,65.68,31.31,-20.69,30.18
46807,0.19,-0.86,0.58,66.70,32.34,-19.95,30.27
46817,0.18,-0.83,0.58,67.02,30.93,-19.76,30.18
46827,0.17,-0.80,0.57,66.23,27.98,-18.92,30.08
46837,0.18,-0.78,0.56,62.69,28.61,-17.40,30.13
46847,0.17,-0.76,0.57,58.27,29.36,-16.20,30.22
46857,0.16,-0.77,0.61,54.75,26.15,-16.76,30.13
46867,0.15,-0.75,0.64,52.23,22.35,-17.95,30.13
46877,0.14,-0.74,0.64,50.92,18.78,-17.28,30.13
46887,0.15,-0.74,0.65,52.60,19.68,-13.98,30.18
46897,0.18,-0.75,0.64,54.55,23.62,-10.29,30.27
46907,0.18,-0.76,0.68,54.43,27.66,-7.68,30.08
46917,0.19,-0.73,0.68,54.52,30.34,-6.49,30.18
46927,0.21,-0.72,0.67,54.40,32.50,-6.90,30.08
46937,0.20,-0.70,0.68,53.73,30.56,-8.12,30.13
46947,0.17,-0.68,0.67,53.08,28.24,-8.35,30.22
46957,0.17,-0.65,0.67,52.27,27.50,-7.85,30.13
46967,0.18,-0.62,0.65,49.82,29.22,-6.67,30.22
46977,0.17,-0.61,0.66,42.29,31.47,-4.89,30.27
46987,0.15,-0.61,0.72,37.51,30.87,-1.36,30.18
46997,0.16,-0.63,0.77,36.40,30.56,0.08,30.27
47007,0.17,-0.64,0.82,36.95,30.32,-0.58,30.18
47017,0.15,-0.65,0.86,39.88,26.99,-1.88,30.18
47027,0.13,-0.65,0.86,44.63,21.45,-1.50,30.18
47037,0.14,-0.62,0.84,47.79,19.42,-1.97,30.18
47047,0.13,-0.60,0.83,47.85,18.37,-1.60,30.22
47057,0.12,-0.58,0.80,48.08,16.31,2.67,30.22
47067,0.15,-0.56,0.81,44.89,16.69,4.66,30.13
47077,0.16,-0.55,0.85,42.61,18.20,3.86,30.22
47087,0.16,-0.55,0.86,42.12,16.56,3.08,30.22
47097,0.16,-0.56,0.87,43.33,12.84,1.40,30.08
47107,0.17,-0.55,0.86,45.80,9.34,0.40,30.18
47117,0.16,-0.52,0.89,47.33,6.85,-1.77,30.18
47127,0.15,-0.50,0.91,46.72,6.99,-5.07,30.27
47137,0.13,-0.49,0.93,47.02,4.00,-7.59,30.18
47147,0.15,-0.45,0.88,48.93,2.66,-9.73,30.18
47157,0.16,-0.42,0.83,49.18,4.64,-9.53,30.22
47167,0.17,-0.39,0.78,46.90,11.44,-9.25,30.13
47177,0.16,-0.37,0.77,43.15,18.92,-7.57,30.22
47187,0.17,-0.38,0.76,38.52,27.85,-5.65,30.13
47197,0.14,-0.39,0.79,32.08,33.83,-4.69,30.18
47207,0.10,-0.39,0.82,27.42,35.07,-2.82,30.18
47217,0.07,-0.39,0.88,24.24,32.35,0.02,30.18
47227,0.06,-0.40,0.91,23.54,26.27,2.69,30.18
47237,0.08,-0.41,0.93,24.34,19.24,4.08,30.18
47247,0.09,-0.42,0.94,26.53,15.05,3.94,30.18
47257,0.12,-0.42,0.97,30.63,10.52,4.34,30.18
47267,0.13,-0.41,0.96,32.20,9.40,5.16,30.22
47277,0.16,-0.40,0.92,32.23,9.92,4.26,30.13
47287,0.19,-0.38,0.92,29.80,11.69,1.18,30.13
47297,0.18,-0.38,0.92,26.96,12.23,-1.92,30.13
47307,0.17,-0.37,0.93,26.75,12.58,-4.85,30.22
47317,0.14,-0.37,0.91,29.24,14.41,-3.01,30.18
47327,0.13,-0.34,0.91,29.68,17.28,-0.75,30.18
47337,0.12,-0.33,0.92,28.61,18.60,1.59,30.18
47347,0.13,-0.32,0.91,26.82,16.98,1.83,30.18
47357,0.13,-0.31,0.90,24.90,15.34,0.81,30.18
47367,0.13,-0.32,0.91,23.82,14.15,-0.37,30.18
47377,0.13,-0.32,0.93,24.00,14.76,-1.33,30.13
47387,0.12,-0.31,0.95,24.99,14.37,-1.54,30.22
47397,0.13,-0.32,0.95,26.27,15.73,-2.61,30.22
47407,0.11,-0.29,0.95,23.98,11.88,-2.55,30.13
47417,0.12,-0.27,0.94,21.77,10.35,-1.92,30.18
47427,0.12,-0.28,0.94,19.25,12.08,-1.47,30.27
47437,0.12,-0.27,0.94,17.19,14.61,-0.31,30.18
47447,0.13,-0.27,0.94,17.22,16.98,1.01,30.18
47457,0.14,-0.29,0.96,18.56,17.50,1.04,30.18
47467,0.16,-0.30,0.96,19.10,16.92,-2.20,30.18
47477,0.13,-0.30,0.98,19.66,13.97,-5.02,30.22
47487,0.11,-0.27,0.96,19.97,10.61,-6.35,30.13
47497,0.11,-0.26,0.94,19.69,9.97,-6.21,30.13
47507,0.09,-0.24,0.93,18.64,9.25,-4.03,30.18
47517,0.12,-0.23,0.91,17.53,12.66,-2.63,30.22
47527,0.11,-0.22,0.90,14.47,14.08,-2.12,30.08
47537,0.12,-0.23,0.88,11.65,16.09,-2.29,30.18
47547,0.11,-0.23,0.90,8.93,16.53,-2.06,30.18
47557,0.10,-0.23,0.91,7.83,16.60,-2.18,30.27
47567,0.08,-0.25,0.92,7.74,13.91,-4.18,30.18
47577,0.06,-0.26,0.90,8.38,9.05,-6.09,30.08
47587,0.03,-0.22,0.83,10.55,5.48,-6.29,30.13
47597,0.05,-0.18,0.77,7.40,6.27,-4.93,30.13
47607,0.05,-0.15,0.76,0.78,7.66,-3.77,30.13
47617,0.06,-0.15,0.78,-5.98,11.19,-3.83,30.22
47627,0.04,-0.18,0.87,-10.37,13.01,-2.75,30.13
47637,0.05,-0.22,0.94,-11.71,16.47,-2.56,30.18
47647,0.03,-0.27,1.00,-12.53,14.56,-1.10,30.18
47657,0.05,-0.29,1.08,-9.57,11.48,-1.47,30.27
47667,0.01,-0.30,1.12,-7.13,4.92,-0.09,30.18
47677,0.04,-0.29,1.11,-3.79,1.05,1.69,30.18
47687,0.08,-0.28,1.09,-0.06,1.39,2.72,30.18
47697,0.11,-0.28,1.07,2.21,5.02,3.28,30.22
47707,0.14,-0.28,1.04,2.70,8.79,1.71,30.13
47717,0.14,-0.28,1.00,2.67,11.30,-0.89,30.32
47727,0.14,-0.25,0.97,0.31,12.93,-3.21,30.18
47737,0.12,-0.24,0.98,-2.27,12.08,-6.18,30.13
47747,0.09,-0.24,0.99,-4.78,11.71,-7.68,30.08
47757,0.06,-0.24,0.98,-4.96,11.30,-6.31,30.08
47767,0.06,-0.24,0.98,-5.22,14.27,-5.05,30.18
47777,0.05,-0.24,0.98,-5.66,15.28,-5.19,30.27
47787,0.02,-0.23,0.98,-7.42,16.06,-6.11,30.18
47797,-0.01,-0.23,0.99,-7.37,15.65,-5.39,30.22
47807,-0.03,-0.23,1.01,-6.87,15.33,-4.60,30.13
47817,-0.05,-0.22,1.02,-6.17,12.53,-3.53,30.04
47827,-0.06,-0.22,1.01,-5.97,8.99,-2.27,30.22
47837,-0.08,-0.20,0.99,-7.21,4.27,-0.32,30.22
47847,-0.06,-0.20,0.98,-7.15,2.66,2.75,30.08
47857,-0.06,-0.21,0.98,-8.37,1.66,5.30,30.18
47867,-0.02,-0.23,0.97,-8.73,1.62,7.82,30.27
47877,0.01,-0.24,0.97,-8.87,2.20,8.67,30.18
47887,0.03,-0.24,0.97,-9.77,1.53,7.74,30.27
47897,0.06,-0.24,0.97,-9.88,1.89,6.27,30.22
47907,0.06,-0.24,0.97,-10.79,4.24,5.44,30.22
47917,0.06,-0.25,0.99,-11.10,5.86,4.44,30.22
47927,0.06,-0.26,1.02,-11.56,7.21,2.72,30.22
47937,0.05,-0.27,1.03,-10.99,6.72,2.00,30.22
47947,0.04,-0.27,1.05,-9.04,6.18,2.02,30.27
47957,0.04,-0.27,1.05,-7.57,6.08,2.35,30.18
47967,0.04,-0.27,1.05,-6.72,6.38,2.15,30.27
47977,0.04,-0.28,1.04,-4.93,6.24,2.11,30.18
47987,0.05,-0.28,1.04,-3.63,6.26,1.42,30.18
47997,0.04,-0.26,1.01,-3.95,4.99,0.43,30.18
48007,0.04,-0.26,1.00,-6.20,4.05,-0.61,30.22
48017,0.03,-0.25,1.01,-8.72,3.01,-1.16,30.22
48027,0.02,-0.25,1.02,-10.40,2.20,-1.56,30.22
48037,0.03,-0.27,1.03,-10.27,2.50,-2.11,30.18
48047,0.02,-0.29,1.06,-8.95,1.19,-2.64,30.22
48057,0.02,-0.30,1.07,-5.82,0.40,-3.34,30.18
48067,0.02,-0.29,1.07,-2.90,1.39,-3.82,30.27
48077,0.02,-0.27,1.04,-1.79,2.31,-2.75,30.18
48087,0.01,-0.26,1.03,-2.46,4.52,-1.51,30.27
48097,0.02,-0.26,1.02,-3.80,5.62,-1.37,30.27
48107,-0.00,-0.26,1.03,-5.44,4.50,-0.49,30.18
48117,-0.01,-0.26,1.05,-6.85,3.74,-0.46,30.13
48127,-0.00,-0.26,1.06,-6.72,3.86,1.37,30.22
48137,0.01,-0.25,1.05,-6.21,6.18,3.19,30.32
48147,0.02,-0.26,1.06,-7.30,8.32,4.24,30.22
48157,0.02,-0.28,1.09,-6.70,7.82,4.84,30.22
48167,0.01,-0.29,1.11,-5.60,7.57,3.95,30.08
48177,0.01,-0.29,1.11,-3.68,4.50,3.15,30.27
48187,0.02,-0.30,1.09,-1.74,2.34,2.84,30.18
48197,0.03,-0.29,1.07,-0.03,0.99,2.67,30.27
48207,0.05,-0.29,1.04,0.81,1.28,1.92,30.27
48217,0.06,-0.28,1.03,0.46,2.05,0.31,30.27
48227,0.05,-0.28,1.02,-0.53,3.30,0.29,30.22
48237,0.04,-0.27,1.02,-1.79,5.44,0.37,30.22
48247,0.04,-0.28,1.03,-3.10,6.55,1.13,30.22
48257,0.02,-0.28,1.04,-3.60,6.53,1.65,30.08
48267,0.03,-0.29,1.05,-3.36,5.08,1.30,30.22
48277,0.03,-0.29,1.05,-2.99,2.31,1.01,30.18
48287,0.04,-0.29,1.04,-1.97,0.35,0.79,30.18
48297,0.05,-0.29,1.04,-0.53,1.69,0.02,30.18
48307,0.06,-0.29,1.02,-0.29,4.84,-0.18,30.18
48317,0.05,-0.28,1.03,-0.70,6.87,-0.05,30.18
48327,0.04,-0.28,1.02,-1.02,7.66,-0.06,30.18
48337,0.04,-0.28,1.01,-1.56,7.50,-0.24,30.22
48347,0.03,-0.27,1.01,-2.89,7.16,-1.07,30.22
48357,0.03,-0.27,1.01,-4.50,4.98,-1.63,30.22
48367,0.02,-0.27,1.00,-5.69,4.67,-1.74,30.13
48377,0.03,-0.27,1.01,-7.05,6.29,-1.37,30.32
48387,0.03,-0.29,1.01,-6.37,6.05,-0.14,30.18
48397,0.03,-0.30,1.03,-5.83,7.45,-0.40,30.27
48407,0.03,-0.30,1.05,-4.60,6.43,-1.44,30.27
48417,0.03,-0.29,1.03,-3.73,4.93,-2.56,30.18
48427,0.03,-0.29,1.03,-3.19,3.42,-2.34,30.27
48437,0.04,-0.28,1.03,-3.68,4.63,-2.47,30.18
48447,0.03,-0.29,1.07,-4.11,6.43,-2.11,30.27
