Millis,Acce_X,Acce_Y,Acce_Z,Gyro_X,Gyro_Y,Gyro_Z,Temp
56317,0.05,-0.32,0.96,3.80,3.39,-15.40,30.27
56327,0.02,-0.33,0.99,0.00,7.57,-16.41,30.27
56337,-0.02,-0.35,1.04,-2.23,8.69,-16.56,30.22
56347,-0.04,-0.35,1.06,-2.52,7.68,-16.20,30.22
56357,-0.05,-0.36,1.06,-1.25,4.50,-14.98,30.13
56367,-0.02,-0.37,1.07,0.09,3.85,-13.95,30.13
56377,-0.00,-0.36,1.05,0.32,3.63,-14.15,30.13
56387,0.02,-0.36,1.04,-0.14,5.18,-15.59,30.18
56397,0.04,-0.37,1.04,-0.87,7.37,-17.73,30.27
56407,0.04,-0.38,1.04,-1.44,7.66,-19.31,30.18
56417,0.04,-0.38,1.06,-1.56,7.13,-20.50,30.18
56427,0.03,-0.38,1.06,-1.79,6.81,-22.02,30.08
56437,0.02,-0.38,1.07,-0.24,5.73,-22.64,30.27
56447,0.02,-0.38,1.08,-0.95,6.64,-23.01,30.18
56457,0.03,-0.38,1.06,1.79,9.22,-23.10,30.13
56467,-0.01,-0.38,1.07,2.02,7.34,-22.29,30.22
56477,0.00,-0.35,1.07,2.58,6.81,-22.47,30.13
56487,0.01,-0.35,1.05,4.20,6.00,-23.59,30.13
56497,-0.00,-0.35,1.04,4.76,3.10,-24.12,30.22
56507,-0.01,-0.34,1.00,3.79,3.56,-23.95,30.22
56517,-0.01,-0.33,0.98,4.14,1.95,-22.96,30.18
56527,-0.04,-0.32,0.98,3.86,0.20,-22.31,30.18
56537,-0.02,-0.30,0.99,4.46,2.08,-20.60,30.18
56547,-0.00,-0.30,0.97,4.96,1.68,-20.61,30.18
56557,0.02,-0.29,0.96,4.53,0.67,-20.56,30.18
56567,0.04,-0.28,0.96,2.50,1.92,-20.50,30.18
56577,0.04,-0.28,0.95,-0.67,3.69,-20.44,30.27
56587,0.03,-0.28,0.98,-3.08,3.08,-20.76,30.32
56597,0.02,-0.28,0.99,-4.24,1.79,-20.85,30.22
56607,0.02,-0.29,0.98,-4.47,0.38,-20.92,30.22
56617,0.04,-0.29,0.99,-4.09,1.16,-20.63,30.22
56627,0.06,-0.29,0.98,-2.75,4.70,-20.02,30.13
56637,0.06,-0.30,0.97,-1.80,8.24,-19.31,30.22
56647,0.07,-0.29,0.96,-1.85,11.95,-18.29,30.18
56657,0.06,-0.27,0.95,-3.33,13.69,-18.02,30.18
56667,0.06,-0.26,0.95,-5.82,13.54,-17.89,30.18
56677,0.06,-0.27,0.95,-8.40,12.08,-19.19,30.18
56687,0.06,-0.28,0.95,-10.03,10.93,-20.32,30.18
56697,0.06,-0.27,0.97,-11.24,9.97,-21.08,30.18
56707,0.05,-0.29,0.99,-12.53,10.23,-21.40,30.18
56717,0.04,-0.30,1.00,-12.34,9.51,-21.98,30.22
56727,0.06,-0.31,1.00,-11.71,10.75,-22.90,30.22
56737,0.06,-0.33,0.99,-10.53,12.43,-22.32,30.13
56747,0.09,-0.32,0.99,-9.88,16.85,-21.51,30.22
56757,0.08,-0.32,0.99,-10.69,20.55,-21.98,30.22
56767,0.09,-0.33,1.01,-12.00,21.15,-23.05,30.13
56777,0.08,-0.33,1.00,-12.63,19.21,-25.24,30.18
56787,0.08,-0.34,1.00,-13.82,17.89,-27.22,30.18
56797,0.07,-0.35,1.03,-14.31,16.11,-29.05,30.08
56807,0.06,-0.37,1.05,-13.44,15.91,-30.81,30.27
56817,0.04,-0.40,1.08,-12.02,13.02,-33.53,30.18
56827,0.02,-0.41,1.07,-9.07,10.41,-35.10,30.18
56837,0.02,-0.42,1.10,-6.66,10.43,-36.49,30.04
56847,0.02,-0.40,1.11,-3.13,11.65,-35.48,30.13
56857,0.02,-0.40,1.09,-1.13,15.66,-34.70,30.22
56867,0.05,-0.40,1.09,0.93,18.78,-34.29,30.13
56877,0.05,-0.40,1.07,2.23,21.60,-34.95,30.22
56887,0.05,-0.40,1.08,3.98,23.66,-36.81,30.13
56897,0.05,-0.40,1.07,6.12,23.48,-40.24,30.18
56907,0.04,-0.41,1.07,7.11,21.08,-43.40,30.18
56917,0.03,-0.42,1.08,8.60,17.42,-46.73,30.18
56927,0.05,-0.43,1.08,11.98,18.46,-50.52,30.18
56937,0.03,-0.42,1.06,14.78,22.41,-52.34,30.27
56947,0.01,-0.40,1.04,15.59,28.06,-52.49,30.18
56957,-0.00,-0.39,1.04,14.73,32.15,-52.24,30.13
56967,-0.03,-0.40,1.05,14.06,30.53,-52.35,30.13
56977,-0.04,-0.37,1.05,12.38,28.55,-53.11,30.04
56987,-0.05,-0.37,1.03,11.88,26.21,-54.60,30.22
56997,-0.06,-0.38,1.03,12.18,24.75,-54.82,30.18
57007,-0.07,-0.37,1.02,12.53,25.11,-54.38,30.13
57017,-0.07,-0.36,1.02,12.63,25.79,-53.85,30.18
57027,-0.09,-0.35,1.02,12.73,25.27,-53.57,30.18
57037,-0.08,-0.35,1.01,11.89,23.28,-54.73,30.08
57047,-0.07,-0.34,1.01,9.86,18.46,-55.77,30.18
57057,-0.12,-0.30,0.99,7.18,8.50,-54.67,30.18
57067,-0.07,-0.34,1.03,9.22,23.56,-58.87,30.18
57077,-0.12,-0.32,0.98,8.64,-0.41,-57.62,30.13
57087,-0.07,-0.31,0.93,7.65,14.02,-55.51,30.13
57097,-0.07,-0.30,0.97,8.56,21.92,-49.85,30.22
57107,-0.09,-0.29,0.97,7.86,29.50,-48.67,30.13
57117,-0.12,-0.31,0.98,5.36,24.38,-48.73,30.13
57127,-0.11,-0.29,0.97,4.55,19.89,-49.44,30.18
57137,-0.11,-0.29,0.97,3.47,16.17,-48.81,30.18
57147,-0.11,-0.28,0.97,2.37,14.67,-47.15,30.08
57157,-0.12,-0.27,0.97,-0.53,11.27,-45.28,30.18
57167,-0.07,-0.30,0.94,-2.99,14.67,-44.76,30.27
57177,-0.07,-0.31,0.97,-2.87,9.91,-45.15,30.18
57187,-0.03,-0.30,0.96,-3.48,13.94,-44.29,30.18
57197,-0.02,-0.30,0.94,-4.90,15.42,-44.73,30.22
57207,-0.02,-0.30,0.95,-5.69,22.49,-43.45,30.13
57217,-0.02,-0.31,0.95,-6.41,27.97,-42.12,30.22
57227,-0.03,-0.32,0.97,-6.67,30.95,-40.76,30.22
57237,-0.04,-0.31,0.95,-6.20,33.37,-41.92,30.13
57247,-0.05,-0.33,0.97,-5.28,35.57,-41.86,30.32
57257,-0.04,-0.34,0.97,-4.06,36.70,-41.69,30.08
57267,-0.07,-0.34,0.99,-1.68,37.63,-42.03,30.18
57277,-0.06,-0.35,1.00,1.10,38.60,-42.89,30.18
57287,-0.08,-0.36,1.00,4.08,36.58,-43.73,30.18
57297,-0.08,-0.35,0.99,4.81,34.90,-44.96,30.18
57307,-0.09,-0.34,0.99,5.33,32.89,-45.33,30.08
57317,-0.09,-0.33,0.96,4.37,30.55,-45.51,30.18
57327,-0.09,-0.33,0.96,2.50,28.52,-46.93,30.13
57337,-0.10,-0.31,0.95,-0.98,26.58,-47.36,30.22
57347,-0.12,-0.30,0.95,-3.89,23.97,-47.69,30.13
57357,-0.11,-0.32,0.92,-4.67,23.05,-47.16,30.13
57367,-0.11,-0.32,0.91,-6.29,22.61,-46.90,30.13
57377,-0.12,-0.33,0.92,-7.02,23.34,-47.53,30.13
57387,-0.10,-0.31,0.91,-6.31,23.66,-45.47,30.18
57397,-0.07,-0.32,0.90,-6.76,26.02,-45.71,30.08
57407,-0.05,-0.33,0.86,-10.38,31.60,-45.66,30.08
57417,-0.08,-0.34,0.89,-12.95,38.90,-43.39,30.27
57427,-0.11,-0.36,0.92,-12.75,46.26,-40.96,30.08
57437,-0.12,-0.37,0.95,-13.50,50.70,-40.34,30.18
57447,-0.16,-0.37,0.95,-17.07,49.18,-41.85,30.32
57457,-0.18,-0.42,0.98,-16.44,40.41,-44.56,30.22
57467,-0.13,-0.39,0.95,-14.89,38.17,-44.99,30.22
57477,-0.11,-0.38,0.94,-15.19,38.03,-47.48,30.22
57487,-0.09,-0.42,0.96,-13.39,37.25,-48.17,30.13
57497,-0.07,-0.44,0.96,-12.05,37.88,-50.53,30.13
57507,-0.05,-0.46,0.97,-11.19,37.85,-54.05,30.27
57517,-0.06,-0.47,0.97,-9.60,38.53,-56.63,30.18
57527,-0.05,-0.46,0.95,-7.88,43.71,-58.34,30.27
57537,-0.08,-0.46,0.96,-6.96,50.23,-58.27,30.37
57547,-0.08,-0.46,0.95,-7.44,59.33,-57.73,30.18
57557,-0.11,-0.45,0.98,-6.35,58.70,-57.21,30.18
57567,-0.13,-0.44,0.97,-6.96,60.05,-59.69,30.18
57577,-0.13,-0.44,0.96,-5.68,57.25,-61.80,30.13
57587,-0.13,-0.44,0.96,-6.05,54.95,-63.82,30.13
57597,-0.13,-0.45,0.97,-6.76,46.46,-65.95,30.22
57607,-0.12,-0.45,0.97,-7.30,38.64,-70.95,30.13
57617,-0.11,-0.46,0.97,-7.28,34.81,-74.63,30.22
57627,-0.07,-0.46,0.94,-6.46,33.40,-77.22,30.22
57637,-0.05,-0.47,0.91,-6.93,36.63,-79.15,30.18
57647,-0.04,-0.47,0.89,-7.85,44.05,-79.89,30.18
57657,-0.05,-0.48,0.88,-8.98,55.60,-79.74,30.18
57667,-0.07,-0.48,0.87,-9.83,66.89,-78.50,30.18
57677,-0.15,-0.46,0.93,-12.00,67.28,-80.24,30.18
57687,-0.22,-0.48,0.93,-14.90,55.86,-88.78,30.18
57697,-0.27,-0.55,1.00,-18.43,26.09,-101.16,30.13
57707,-0.33,-0.61,1.08,-12.87,-15.65,-115.53,30.13
57717,-0.31,-0.56,0.98,-11.05,-64.11,-128.53,30.22
57727,-0.14,-0.57,0.81,-13.02,-78.06,-135.34,30.22
57737,-0.09,-0.51,0.75,-16.17,-73.31,-135.51,30.18
57747,-0.02,-0.47,0.65,-23.08,-40.50,-128.95,30.13
57757,0.01,-0.49,0.64,-28.23,3.59,-115.69,30.27
57767,-0.04,-0.53,0.70,-28.79,46.06,-102.63,30.18
57777,-0.09,-0.58,0.77,-29.73,75.71,-93.85,30.18
57787,-0.19,-0.63,0.86,-30.32,84.95,-94.61,30.27
57797,-0.27,-0.66,0.93,-31.05,74.00,-98.27,30.18
57807,-0.32,-0.69,1.00,-30.17,61.25,-105.33,30.27
57817,-0.42,-0.67,1.04,-27.21,33.68,-111.56,30.27
57827,-0.38,-0.65,0.97,-28.64,12.09,-113.53,30.13
57837,-0.37,-0.63,0.95,-30.53,-2.09,-112.58,30.32
57847,-0.33,-0.63,0.92,-30.79,-4.98,-108.23,30.13
57857,-0.24,-0.62,0.88,-28.06,0.70,-102.53,30.13
57867,-0.21,-0.63,0.87,-24.09,10.34,-98.26,30.18
57877,-0.16,-0.64,0.87,-19.15,17.97,-93.11,30.13
57887,-0.15,-0.64,0.88,-12.05,30.05,-88.31,30.18
57897,-0.14,-0.64,0.88,-6.90,42.53,-83.68,30.08
57907,-0.17,-0.65,0.91,-8.67,46.49,-83.08,30.18
57917,-0.24,-0.63,0.93,-12.66,40.52,-85.25,30.18
57927,-0.30,-0.60,0.96,-17.04,31.28,-86.63,30.18
57937,-0.34,-0.60,0.99,-16.49,18.87,-84.27,30.18
57947,-0.33,-0.61,0.97,-14.06,7.50,-79.40,30.22
57957,-0.27,-0.65,0.98,-10.35,4.24,-75.11,30.22
57967,-0.21,-0.67,0.98,-3.62,6.93,-72.44,30.22
57977,-0.21,-0.66,1.00,-0.49,9.18,-71.71,30.22
57987,-0.23,-0.62,0.99,2.05,9.85,-69.45,30.22
57997,-0.25,-0.60,1.00,4.98,6.60,-64.93,30.18
58007,-0.23,-0.62,1.01,7.33,-0.72,-61.80,30.18
58017,-0.18,-0.64,0.98,9.19,-5.30,-61.91,30.18
58027,-0.14,-0.64,0.96,9.05,-11.57,-63.82,30.18
58037,-0.11,-0.62,0.91,10.82,-12.53,-64.27,30.27
58047,-0.10,-0.57,0.88,10.85,-6.90,-61.24,30.18
58057,-0.11,-0.53,0.87,9.08,-1.69,-55.94,30.18
58067,-0.10,-0.52,0.88,9.21,4.50,-51.60,30.32
58077,-0.07,-0.53,0.87,9.50,10.23,-47.33,30.13
58087,-0.06,-0.55,0.89,9.98,10.69,-45.69,30.22
58097,-0.05,-0.55,0.89,8.96,7.16,-47.31,30.22
58107,-0.06,-0.53,0.90,7.33,1.18,-48.21,30.22
58117,-0.05,-0.51,0.90,5.40,-1.94,-48.03,30.22
58127,-0.02,-0.50,0.93,4.60,-6.20,-48.32,30.27
58137,0.02,-0.51,0.93,2.08,-8.47,-48.92,30.18
58147,0.05,-0.50,0.94,1.47,-6.73,-49.42,30.18
58157,0.08,-0.52,0.93,5.86,-3.79,-46.00,30.18
58167,0.11,-0.53,0.91,8.52,1.98,-44.67,30.18
58177,0.13,-0.55,0.91,7.37,6.55,-43.50,30.18
58187,0.13,-0.54,0.92,7.24,6.38,-42.93,30.22
58197,0.12,-0.53,0.92,6.46,8.00,-43.33,30.22
58207,0.12,-0.50,0.91,4.41,10.99,-44.46,30.22
58217,0.12,-0.48,0.93,3.25,11.86,-44.66,30.22
58227,0.13,-0.46,0.94,1.98,18.00,-43.79,30.22
58237,0.13,-0.46,0.95,1.45,20.00,-42.35,30.13
58247,0.13,-0.48,0.94,2.58,26.76,-39.31,30.22
58257,0.14,-0.49,0.90,4.20,35.88,-35.89,30.27
58267,0.18,-0.52,0.87,4.81,48.69,-33.73,30.18
58277,0.20,-0.52,0.82,4.72,65.83,-32.02,30.18
58287,0.18,-0.51,0.78,5.74,87.28,-28.55,30.18
58297,0.13,-0.49,0.80,3.19,98.17,-27.68,30.18
58307,0.07,-0.49,0.84,-0.92,105.59,-28.14,30.27
58317,-0.00,-0.49,0.91,-2.92,98.78,-31.16,30.22
58327,-0.07,-0.51,0.98,-2.63,82.76,-34.84,30.13
58337,-0.09,-0.52,1.02,0.60,63.24,-37.89,30.22
58347,-0.06,-0.52,1.00,4.15,48.76,-40.24,30.22
58357,-0.03,-0.50,0.96,5.69,43.85,-40.78,30.13
58367,-0.03,-0.47,0.94,4.49,48.00,-39.44,30.22
58377,-0.03,-0.46,0.96,1.04,52.31,-36.79,30.13
58387,-0.04,-0.48,0.99,-3.13,52.82,-35.39,30.18
58397,-0.06,-0.51,1.01,-4.73,48.75,-34.92,30.18
58407,-0.06,-0.52,1.04,-4.72,40.49,-34.70,30.18
58417,-0.04,-0.52,1.00,-3.76,34.12,-34.46,30.27
58427,-0.02,-0.53,0.98,-2.11,31.95,-35.16,30.27
58437,-0.03,-0.52,0.94,-2.76,34.15,-35.42,30.18
58447,-0.07,-0.52,0.97,-2.95,37.07,-34.84,30.13
58457,-0.13,-0.49,1.00,-1.66,35.08,-34.29,30.13
58467,-0.17,-0.49,1.02,0.96,26.79,-32.09,30.13
58477,-0.17,-0.48,0.99,2.31,16.26,-32.34,30.22
58487,-0.14,-0.48,0.95,0.58,8.23,-31.65,30.22
58497,-0.11,-0.47,0.92,-3.88,5.34,-30.12,30.13
58507,-0.09,-0.53,0.93,-5.56,3.47,-29.48,30.27
58517,-0.07,-0.55,0.93,-8.85,3.18,-32.53,30.18
58527,-0.11,-0.52,0.93,-10.06,-0.89,-35.98,30.27
58537,-0.14,-0.47,0.90,-11.51,-2.85,-35.56,30.18
58547,-0.16,-0.43,0.89,-16.02,-2.23,-31.39,30.27
58557,-0.15,-0.44,0.89,-23.65,7.39,-27.37,30.18
58567,-0.16,-0.49,0.95,-28.69,18.50,-23.48,30.22
58577,-0.20,-0.54,1.05,-28.67,25.42,-20.63,30.22
58587,-0.24,-0.58,1.11,-25.10,24.44,-17.66,30.22
58597,-0.27,-0.60,1.14,-17.28,15.31,-15.77,30.13
58607,-0.28,-0.59,1.12,-10.81,4.11,-13.69,30.18
58617,-0.27,-0.56,1.09,-6.17,-5.04,-8.63,30.22
58627,-0.21,-0.55,1.05,-4.40,-11.74,-3.89,30.18
58637,-0.13,-0.57,1.03,-3.60,-19.08,-1.28,30.18
58647,-0.05,-0.60,0.99,-0.44,-28.08,0.34,30.18
58657,0.05,-0.62,0.92,5.15,-26.43,-0.26,30.18
58667,0.09,-0.61,0.87,11.54,-19.89,-0.31,30.18
58677,0.08,-0.57,0.83,12.98,-10.60,0.61,30.27
58687,0.07,-0.51,0.79,10.35,-1.36,0.92,30.27
58697,0.05,-0.49,0.79,6.43,2.44,0.37,30.13
58707,0.05,-0.44,0.81,3.31,2.84,0.38,30.32
58717,0.03,-0.44,0.83,2.23,-1.66,0.72,30.22
58727,0.05,-0.42,0.84,0.03,-6.41,0.35,30.22
58737,0.11,-0.41,0.86,-2.43,-8.02,0.52,30.18
58747,0.17,-0.41,0.87,-5.31,-2.55,-0.69,30.22
58757,0.20,-0.42,0.88,-7.79,6.55,-2.58,30.18
58767,0.18,-0.42,0.91,-9.04,17.24,-3.74,30.18
58777,0.11,-0.44,0.95,-8.64,23.65,-4.72,30.18
58787,0.05,-0.44,0.99,-8.52,22.38,-6.56,30.27
58797,0.01,-0.45,0.98,-7.30,16.29,-8.61,30.18
58807,-0.06,-0.43,0.96,-6.78,9.62,-9.31,30.18
58817,-0.09,-0.40,0.93,-9.42,6.20,-7.01,30.18
58827,-0.11,-0.42,0.96,-12.76,2.67,-4.44,30.22
58837,-0.12,-0.45,0.98,-13.22,-1.60,-3.74,30.22
58847,-0.09,-0.50,1.00,-8.98,-6.40,-4.31,30.22
58857,-0.05,-0.53,0.98,-2.82,-6.53,-5.48,30.22
58867,-0.07,-0.50,0.99,-0.46,-6.02,-4.73,30.27
58877,-0.04,-0.52,0.97,1.85,0.06,-3.92,30.22
58887,-0.03,-0.50,0.99,1.63,4.55,-3.95,30.18
58897,-0.08,-0.49,0.99,0.79,6.47,-4.08,30.18
58907,-0.11,-0.45,0.96,0.66,6.99,-2.72,30.18
58917,-0.11,-0.47,0.94,2.12,6.18,-0.49,30.27
58927,-0.10,-0.48,0.92,2.89,6.75,-0.11,30.27
58937,-0.10,-0.46,0.90,2.72,7.07,0.18,30.27
58947,-0.12,-0.45,0.91,1.08,6.00,0.38,30.22
58957,-0.16,-0.43,0.93,0.03,0.87,0.56,30.22
58967,-0.18,-0.42,0.95,-0.35,-6.70,1.68,30.22
58977,-0.21,-0.40,0.94,-1.59,-16.66,3.60,30.32
58987,-0.19,-0.40,0.93,-3.25,-27.27,6.11,30.22
58997,-0.14,-0.42,0.90,-4.35,-31.65,6.87,30.27
59007,-0.08,-0.44,0.91,-4.11,-27.53,8.02,30.27
59017,-0.10,-0.45,0.96,-2.69,-20.69,10.34,30.18
59027,-0.13,-0.42,1.00,3.25,-10.72,15.08,30.18
59037,-0.13,-0.43,1.03,9.88,3.07,23.88,30.18
59047,-0.08,-0.45,1.04,16.52,12.21,26.56,30.27
59057,-0.07,-0.48,1.08,16.99,13.24,20.98,30.22
59067,-0.09,-0.38,1.06,10.76,11.31,16.47,30.22
59077,-0.14,-0.36,1.09,9.69,11.89,16.29,30.22
59087,-0.05,-0.36,1.06,7.36,15.45,15.89,30.13
59097,-0.09,-0.35,1.12,-3.76,18.84,8.63,30.22
59107,-0.17,-0.34,1.18,-8.44,13.71,9.28,30.22
59117,-0.14,-0.39,1.18,-2.14,5.66,13.39,30.27
59127,-0.07,-0.45,1.15,3.04,2.69,12.21,30.18
59137,-0.02,-0.51,1.15,10.41,-1.83,8.67,30.27
59147,0.01,-0.54,1.12,17.83,-4.69,2.92,30.18
59157,0.01,-0.49,1.06,24.06,-5.83,-1.63,30.18
59167,0.00,-0.40,0.96,24.72,-3.11,-3.40,30.18
59177,0.01,-0.35,0.91,19.85,0.31,-3.66,30.13
59187,0.02,-0.34,0.85,12.69,6.87,-2.46,30.13
59197,-0.01,-0.35,0.84,4.03,12.44,-2.47,30.13
59207,-0.03,-0.39,0.86,-1.71,17.18,-3.91,30.22
59217,-0.06,-0.41,0.90,-4.53,18.84,-5.07,30.27
59227,-0.10,-0.43,0.93,-4.60,17.01,-5.88,30.27
59237,-0.14,-0.42,0.94,-4.41,13.31,-6.79,30.18
59247,-0.15,-0.41,0.96,-5.21,7.19,-6.92,30.27
59257,-0.16,-0.42,0.95,-6.41,2.47,-6.99,30.18
59267,-0.18,-0.42,0.96,-7.97,4.17,-4.20,30.27
59277,-0.20,-0.40,0.97,-9.63,9.11,0.09,30.18
59287,-0.23,-0.40,1.00,-12.24,14.79,4.60,30.18
59297,-0.24,-0.43,1.03,-13.34,18.44,9.21,30.22
59307,-0.26,-0.46,1.06,-13.28,18.40,11.48,30.13
59317,-0.30,-0.49,1.10,-9.98,15.31,13.59,30.22
59327,-0.34,-0.51,1.12,-2.58,10.31,15.19,30.13
59337,-0.36,-0.51,1.12,5.22,4.18,17.60,30.32
59347,-0.38,-0.46,1.09,9.73,-0.21,21.53,30.18
59357,-0.38,-0.42,1.07,9.34,-4.44,27.88,30.18
59367,-0.35,-0.43,1.06,8.31,-9.21,32.24,30.18
59377,-0.33,-0.43,1.04,5.60,-10.35,35.25,30.18
59387,-0.31,-0.42,1.03,5.10,-12.32,38.61,30.27
59397,-0.31,-0.39,1.02,6.55,-15.91,41.57,30.18
59407,-0.30,-0.36,0.98,6.58,-17.07,44.69,30.27
59417,-0.31,-0.34,0.95,6.76,-20.40,49.34,30.13
59427,-0.36,-0.30,0.92,3.80,-25.56,55.60,30.22
59437,-0.35,-0.32,0.91,0.60,-29.50,63.04,30.22
59447,-0.37,-0.36,0.91,-3.77,-40.06,67.37,30.13
59457,-0.37,-0.40,0.88,-11.85,-52.43,68.24,30.22
59467,-0.40,-0.43,0.89,-19.15,-62.79,69.18,30.27
59477,-0.37,-0.50,0.93,-20.60,-69.08,70.38,30.27
59487,-0.32,-0.55,0.96,-20.99,-73.92,69.83,30.18
59497,-0.27,-0.60,0.98,-18.56,-79.45,68.05,30.18
59507,-0.18,-0.62,0.98,-13.66,-82.52,65.07,30.27
59517,-0.11,-0.61,0.98,-2.49,-90.08,62.05,30.18
59527,-0.02,-0.59,0.91,7.34,-85.34,57.82,30.22
59537,0.02,-0.54,0.83,10.32,-74.46,59.02,30.22
59547,0.04,-0.45,0.77,7.05,-56.38,64.44,30.13
59557,0.05,-0.41,0.73,-0.70,-30.52,73.53,30.13
59567,0.03,-0.43,0.75,-8.49,-7.11,82.20,30.08
59577,0.03,-0.47,0.81,-14.66,11.54,86.67,30.22
59587,-0.00,-0.52,0.87,-17.42,20.92,87.04,30.18
59597,-0.05,-0.57,0.97,-15.92,14.31,84.15,30.27
59607,-0.07,-0.60,1.01,-12.27,0.11,80.66,30.18
59617,-0.07,-0.60,1.02,-8.69,-16.02,76.70,30.27
59627,-0.08,-0.57,1.01,-5.98,-30.14,74.70,30.18
59637,-0.08,-0.53,0.94,-5.95,-37.60,76.96,30.18
59647,-0.05,-0.51,0.90,-7.60,-36.09,80.90,30.22
59657,-0.04,-0.51,0.86,-9.92,-30.84,84.96,30.13
59667,0.00,-0.53,0.85,-11.69,-21.76,88.02,30.13
59677,0.01,-0.53,0.83,-15.48,-17.02,89.02,30.22
59687,0.03,-0.55,0.83,-18.00,-10.84,88.87,30.13
59697,0.04,-0.60,0.87,-18.03,-6.69,86.99,30.18
59707,0.01,-0.62,0.93,-15.57,-6.18,84.50,30.27
59717,-0.01,-0.61,0.92,-11.88,-6.05,83.16,30.18
59727,-0.03,-0.60,0.92,-10.50,-10.03,82.11,30.18
59737,-0.09,-0.54,0.90,-12.40,-20.41,80.89,30.18
59747,-0.09,-0.53,0.88,-17.71,-28.92,79.47,30.27
59757,-0.14,-0.51,0.88,-26.34,-40.15,80.72,30.18
59767,-0.16,-0.50,0.85,-35.79,-46.09,85.33,30.22
59777,-0.16,-0.54,0.85,-45.60,-46.20,91.97,30.13
59787,-0.14,-0.58,0.84,-54.11,-46.98,97.69,30.22
59797,-0.11,-0.66,0.89,-61.45,-50.21,95.71,30.22
59807,-0.11,-0.72,0.95,-55.44,-57.92,90.78,30.22
59817,-0.07,-0.75,0.94,-41.22,-61.48,86.96,30.27
59827,-0.05,-0.74,0.92,-24.64,-57.79,84.46,30.18
59837,-0.04,-0.71,0.88,-13.57,-47.04,85.22,30.18
59847,-0.03,-0.67,0.85,-8.17,-33.83,86.87,30.18
59857,-0.07,-0.65,0.88,-6.82,-27.86,88.78,30.18
59867,-0.09,-0.63,0.88,-8.50,-25.47,89.22,30.18
59877,-0.12,-0.63,0.88,-9.13,-29.83,88.63,30.18
59887,-0.12,-0.61,0.87,-8.06,-35.18,87.62,30.22
59897,-0.14,-0.62,0.88,-6.12,-42.98,88.60,30.22
59907,-0.14,-0.61,0.88,-3.21,-46.40,90.29,30.22
59917,-0.12,-0.60,0.87,-1.85,-47.80,92.15,30.18
59927,-0.11,-0.62,0.85,-1.56,-48.69,93.28,30.22
59937,-0.10,-0.61,0.86,-2.63,-49.31,94.15,30.22
59947,-0.07,-0.65,0.87,-0.81,-47.57,94.55,30.18
59957,-0.07,-0.66,0.89,1.40,-45.15,94.02,30.27
59967,-0.06,-0.67,0.91,4.53,-44.27,93.08,30.27
59977,-0.08,-0.66,0.91,7.47,-44.89,91.05,30.18
59987,-0.09,-0.64,0.88,9.19,-46.38,90.72,30.18
59997,-0.09,-0.62,0.86,8.46,-49.66,90.63,30.18
60007,-0.09,-0.62,0.82,6.58,-50.31,91.86,30.04
60017,-0.07,-0.60,0.80,3.25,-49.83,94.43,30.13
60027,-0.03,-0.61,0.79,0.84,-45.98,96.06,30.22
60037,-0.01,-0.61,0.78,-2.43,-43.48,96.72,30.22
60047,0.01,-0.63,0.79,-4.89,-40.78,96.24,30.18
60057,0.04,-0.67,0.81,-4.79,-39.04,95.74,30.22
60067,0.07,-0.68,0.82,-5.47,-35.91,93.68,30.13
60077,0.07,-0.69,0.87,-6.87,-33.95,91.59,30.18
60087,0.07,-0.68,0.89,-4.64,-29.25,91.73,30.18
60097,0.05,-0.69,0.92,-5.04,-23.07,90.87,30.18
60107,0.03,-0.69,0.97,-2.61,-21.68,88.90,30.18
60117,0.00,-0.71,0.97,-0.73,-25.95,85.85,30.18
60127,-0.03,-0.68,0.98,0.73,-34.52,79.48,30.18
60137,-0.03,-0.65,0.96,3.86,-43.80,74.15,30.18
60147,-0.01,-0.61,0.91,5.88,-49.76,69.88,30.22
60157,0.00,-0.57,0.87,5.05,-49.92,68.06,30.22
60167,0.03,-0.57,0.83,6.34,-39.89,67.57,30.22
60177,0.03,-0.54,0.81,4.52,-31.39,68.60,30.22
60187,0.02,-0.52,0.82,0.96,-23.73,67.83,30.13
60197,-0.01,-0.51,0.84,0.34,-20.24,68.96,30.22
60207,-0.01,-0.51,0.86,0.50,-15.89,70.43,30.27
60217,-0.01,-0.52,0.87,-0.95,-10.32,71.42,30.27
60227,-0.02,-0.53,0.93,-2.31,-6.66,73.65,30.18
60237,-0.05,-0.54,0.97,-1.51,-4.60,73.45,30.18
60247,-0.07,-0.55,1.01,1.27,-6.99,71.95,30.18
60257,-0.08,-0.52,1.00,2.78,-12.26,70.27,30.27
60267,-0.08,-0.49,0.99,4.56,-16.00,70.03,30.18
60277,-0.08,-0.49,1.01,4.49,-18.32,70.89,30.22
60287,-0.08,-0.50,1.02,4.78,-18.70,70.46,30.13
60297,-0.08,-0.49,1.01,6.93,-21.53,69.57,30.22
60307,-0.08,-0.47,1.01,6.93,-26.14,67.66,30.22
60317,-0.10,-0.44,0.96,6.79,-29.08,66.73,30.22
60327,-0.10,-0.42,0.96,6.06,-33.42,67.89,30.22
60337,-0.08,-0.41,0.93,3.05,-33.02,69.28,30.13
60347,-0.05,-0.40,0.91,-1.02,-31.95,69.91,30.27
60357,-0.03,-0.40,0.91,-5.22,-30.90,68.87,30.18
60367,-0.01,-0.41,0.89,-9.82,-29.51,67.65,30.18
60377,0.02,-0.39,0.88,-15.31,-25.74,66.34,30.18
60387,0.04,-0.38,0.85,-22.64,-20.70,64.99,30.18
60397,0.06,-0.37,0.85,-32.03,-15.76,63.36,30.18
60407,0.05,-0.40,0.89,-39.77,-12.41,60.03,30.22
60417,0.03,-0.38,0.90,-42.05,-15.65,57.45,30.22
60427,0.02,-0.40,0.91,-41.77,-17.69,58.03,30.13
60437,0.03,-0.39,0.89,-38.55,-18.89,58.85,30.22
60447,0.03,-0.46,0.94,-33.21,-14.90,58.64,30.22
60457,0.02,-0.47,0.98,-23.53,-13.85,57.11,30.22
60467,-0.02,-0.47,0.99,-16.17,-10.58,56.79,30.22
60477,-0.05,-0.45,0.98,-12.23,-10.76,56.67,30.18
60487,-0.08,-0.43,0.98,-11.74,-14.78,55.16,30.18
60497,-0.12,-0.41,0.98,-13.44,-18.75,55.59,30.27
60507,-0.12,-0.41,0.96,-12.14,-20.98,57.63,30.18
60517,-0.12,-0.41,0.97,-13.57,-23.54,59.16,30.27
60527,-0.10,-0.40,0.96,-15.56,-28.20,60.70,30.27
60537,-0.09,-0.41,0.96,-18.12,-32.93,60.08,30.22
60547,-0.09,-0.44,0.96,-20.20,-36.43,59.62,30.22
60557,-0.06,-0.44,0.95,-21.73,-36.20,58.99,30.22
60567,-0.04,-0.46,0.97,-20.31,-35.08,59.05,30.22
60577,-0.04,-0.47,0.97,-19.18,-33.02,58.23,30.22
60587,-0.05,-0.49,0.99,-16.09,-30.69,57.33,30.13
60597,-0.05,-0.47,0.98,-12.64,-28.98,57.36,30.32
60607,-0.03,-0.45,0.95,-12.29,-25.89,59.07,30.27
60617,-0.01,-0.44,0.92,-13.88,-23.44,60.44,30.08
60627,0.00,-0.44,0.91,-17.48,-19.95,59.82,30.18
60637,-0.01,-0.44,0.92,-20.41,-18.63,58.85,30.18
60647,-0.01,-0.44,0.94,-21.45,-18.98,58.56,30.27
60657,0.01,-0.46,0.91,-22.56,-15.60,58.11,30.18
60667,0.04,-0.47,0.95,-22.56,-10.11,56.56,30.22
60677,0.04,-0.50,0.98,-21.39,-8.34,53.15,30.22
60687,0.05,-0.52,1.03,-20.32,-6.52,49.54,30.22
60697,0.05,-0.51,1.01,-19.13,-8.93,45.42,30.22
60707,0.08,-0.50,1.00,-16.23,-9.19,42.09,30.22
60717,0.13,-0.48,0.95,-15.16,-7.04,38.53,30.22
60727,0.17,-0.47,0.93,-17.27,-1.97,32.79,30.32
60737,0.20,-0.45,0.94,-19.57,5.05,26.49,30.27
60747,0.20,-0.50,0.98,-21.33,11.21,19.15,30.18
60757,0.15,-0.54,1.02,-22.43,15.94,9.69,30.27
60767,0.04,-0.57,1.11,-16.49,16.18,0.95,30.18
60777,-0.09,-0.54,1.09,-7.24,18.12,-0.60,30.18
60787,-0.15,-0.52,1.07,-2.37,19.94,1.25,30.18
60797,-0.21,-0.51,1.04,-2.00,19.77,4.09,30.27
60807,-0.24,-0.50,1.03,-3.40,17.95,7.34,30.22
60817,-0.23,-0.49,0.99,-4.21,16.82,10.38,30.22
60827,-0.22,-0.49,0.97,-4.78,14.64,12.09,30.22
60837,-0.23,-0.49,0.98,-4.32,11.98,13.62,30.22
60847,-0.23,-0.48,0.97,-2.55,9.19,15.66,30.22
60857,-0.22,-0.49,0.96,-2.67,6.20,16.23,30.13
60867,-0.24,-0.49,0.98,-3.47,4.78,16.95,30.18
60877,-0.23,-0.47,0.97,-2.64,3.44,19.82,30.18
60887,-0.21,-0.47,0.96,-3.48,2.53,21.50,30.18
60897,-0.17,-0.48,0.98,-4.89,-1.92,20.61,30.08
60907,-0.14,-0.48,0.96,-4.26,-6.20,19.54,30.18
60917,-0.13,-0.49,0.95,-2.35,-8.98,18.90,30.08
60927,-0.11,-0.47,0.94,-2.17,-7.73,17.45,30.13
60937,-0.13,-0.44,0.94,-1.27,-6.03,19.10,30.22
60947,-0.10,-0.45,0.93,-2.20,-5.30,19.95,30.13
60957,-0.07,-0.46,0.96,-3.33,-8.81,16.69,30.22
60967,-0.05,-0.45,0.93,-3.19,-10.93,14.34,30.13
60977,-0.03,-0.43,0.92,-3.21,-9.36,14.49,30.22
60987,-0.01,-0.44,0.91,-3.15,-3.39,13.88,30.22
60997,-0.01,-0.44,0.92,-4.34,0.70,13.05,30.18
61007,-0.05,-0.46,0.95,-3.44,0.49,11.37,30.18
61017,-0.05,-0.47,0.96,-1.39,-2.78,8.73,30.18
61027,-0.05,-0.46,0.96,1.74,-6.08,6.27,30.18
61037,-0.03,-0.43,0.93,2.35,-7.89,4.69,30.27
61047,-0.03,-0.41,0.92,1.04,-7.56,3.53,30.08
61057,-0.03,-0.41,0.92,-0.79,-5.33,3.74,30.13
61067,-0.03,-0.42,0.94,-1.63,-2.56,4.12,30.22
61077,-0.04,-0.46,0.98,-0.76,-2.17,3.34,30.13
61087,-0.06,-0.47,1.01,1.94,-4.15,0.61,30.22
61097,-0.08,-0.43,0.99,4.81,-8.08,0.14,30.13
61107,-0.08,-0.41,0.95,5.34,-11.08,0.82,30.22
61117,-0.08,-0.39,0.92,4.44,-12.43,-0.46,30.18
61127,-0.04,-0.41,0.94,1.98,-6.92,3.71,30.18
61137,-0.01,-0.40,0.90,-1.42,-6.35,3.21,30.18
61147,-0.01,-0.43,0.96,-4.87,-4.76,0.15,30.18
61157,-0.03,-0.43,0.96,-4.82,-6.29,-0.69,30.18
61167,-0.03,-0.43,0.97,-6.03,-5.82,-1.66,30.27
61177,-0.01,-0.44,0.98,-4.49,-5.33,-2.79,30.18
61187,-0.03,-0.45,0.99,-4.18,-3.73,-4.78,30.04
61197,-0.04,-0.45,1.00,-2.03,-3.02,-6.76,30.22
61207,-0.06,-0.44,0.97,-0.58,-1.28,-8.40,30.22
61217,-0.07,-0.42,0.95,-0.89,-0.18,-8.70,30.22
61227,-0.09,-0.42,0.95,-2.32,0.53,-8.38,30.13
61237,-0.10,-0.42,0.96,-3.51,1.02,-8.00,30.22
61247,-0.11,-0.42,0.95,-4.56,1.65,-7.18,30.18
61257,-0.11,-0.42,0.97,-5.27,1.80,-7.05,30.27
61267,-0.11,-0.43,0.98,-4.79,1.37,-5.77,30.18
61277,-0.10,-0.44,0.98,-4.78,3.77,-5.44,30.18
61287,-0.12,-0.44,0.99,-4.24,6.38,-4.66,30.18
61297,-0.13,-0.45,1.00,-3.88,7.36,-3.91,30.27
