Millis,Acce_X,Acce_Y,Acce_Z,Gyro_X,Gyro_Y,Gyro_Z,Temp
230377,-0.00,-0.80,-0.06,-5.57,4.35,2.98,30.46
230387,0.01,-0.79,-0.05,-6.93,3.79,9.33,30.46
230397,0.01,-0.77,-0.06,-9.66,4.53,16.60,30.46
230407,0.02,-0.75,-0.06,-12.31,5.92,24.44,30.46
230417,0.03,-0.78,-0.06,-12.38,8.02,30.63,30.41
230427,0.07,-0.81,-0.07,-12.23,10.70,35.73,30.41
230437,0.07,-0.85,-0.05,-11.36,10.79,37.76,30.41
230447,0.11,-0.90,-0.02,-11.16,10.29,34.29,30.41
230457,0.13,-0.91,0.00,-10.23,5.83,25.34,30.46
230467,0.16,-0.91,-0.00,-12.92,12.05,12.78,30.46
230477,0.14,-0.87,0.01,-14.96,10.61,0.23,30.37
230487,0.13,-0.82,-0.02,-16.41,9.04,-9.77,30.46
230497,0.09,-0.79,-0.04,-18.69,7.98,-15.80,30.37
230507,0.07,-0.77,-0.04,-21.11,6.78,-18.35,30.37
230517,0.04,-0.75,-0.04,-22.96,6.26,-17.10,30.46
230527,0.03,-0.74,-0.07,-25.01,8.23,-12.76,30.41
230537,0.03,-0.74,-0.06,-26.26,10.14,-8.38,30.41
230547,0.03,-0.73,-0.04,-26.96,10.12,-3.45,30.41
230557,0.03,-0.74,-0.04,-26.00,9.68,1.56,30.41
230567,0.06,-0.76,-0.04,-25.54,10.76,5.88,30.32
230577,0.07,-0.78,-0.05,-26.47,11.94,8.03,30.46
230587,0.06,-0.80,0.01,-26.56,4.52,8.17,30.55
230597,0.10,-0.82,-0.02,-28.82,10.05,3.71,30.46
230607,0.10,-0.82,-0.01,-29.02,7.69,1.24,30.46
230617,0.10,-0.80,-0.04,-29.85,9.69,-0.50,30.37
230627,0.09,-0.81,-0.05,-31.50,9.89,-2.00,30.41
230637,0.08,-0.82,-0.05,-33.02,7.15,-4.14,30.41
230647,0.09,-0.81,-0.07,-34.66,5.34,-6.21,30.41
230657,0.09,-0.82,-0.08,-36.55,4.34,-7.57,30.51
230667,0.09,-0.81,-0.08,-38.02,3.73,-8.34,30.41
230677,0.09,-0.81,-0.07,-37.19,3.68,-9.10,30.37
230687,0.08,-0.81,-0.08,-35.21,3.19,-9.45,30.37
230697,0.09,-0.79,-0.10,-33.53,2.69,-8.76,30.46
230707,0.09,-0.77,-0.12,-32.58,2.70,-7.44,30.37
230717,0.10,-0.75,-0.14,-31.97,0.87,-5.83,30.46
230727,0.12,-0.73,-0.16,-32.52,3.68,-5.48,30.41
230737,0.11,-0.74,-0.17,-31.22,1.95,-5.62,30.41
230747,0.12,-0.74,-0.18,-29.02,-0.95,-6.34,30.51
230757,0.14,-0.76,-0.18,-27.88,-1.60,-8.38,30.51
230767,0.14,-0.77,-0.20,-27.98,-4.95,-12.92,30.37
230777,0.16,-0.76,-0.19,-30.73,-3.86,-19.05,30.46
230787,0.15,-0.75,-0.17,-32.89,-5.36,-25.47,30.46
230797,0.14,-0.73,-0.20,-31.36,-6.64,-30.24,30.46
230807,0.13,-0.73,-0.22,-27.36,-4.58,-31.86,30.37
230817,0.09,-0.73,-0.20,-19.85,-4.29,-29.34,30.46
230827,0.06,-0.75,-0.22,-10.87,-5.05,-22.40,30.41
230837,0.05,-0.76,-0.24,-3.11,-4.47,-12.72,30.32
230847,0.05,-0.78,-0.27,0.27,-1.92,-3.80,30.32
230857,0.08,-0.79,-0.30,-3.07,4.06,1.33,30.46
230867,0.11,-0.80,-0.31,-8.46,7.97,1.83,30.41
230877,0.12,-0.81,-0.31,-15.66,7.82,-2.49,30.46
230887,0.15,-0.83,-0.25,-19.59,3.71,-11.60,30.46
230897,0.16,-0.86,-0.21,-15.76,-2.46,-25.16,30.37
230907,0.18,-0.89,-0.25,-6.96,-7.24,-38.00,30.46
230917,0.17,-0.90,-0.26,2.81,-8.79,-48.18,30.37
230927,0.14,-0.87,-0.32,13.21,-10.63,-54.72,30.32
230937,0.09,-0.85,-0.42,21.60,-11.34,-55.40,30.41
230947,0.05,-0.84,-0.49,20.12,-9.11,-49.05,30.41
230957,-0.00,-0.83,-0.51,16.02,-12.11,-38.09,30.41
230967,-0.02,-0.84,-0.55,9.36,-15.62,-25.51,30.41
230977,-0.03,-0.85,-0.55,-3.07,-14.11,-15.45,30.46
230987,-0.05,-0.84,-0.52,-12.44,-20.05,-7.79,30.37
230997,-0.07,-0.90,-0.47,-12.53,-24.50,-0.58,30.37
231007,-0.02,-0.98,-0.46,-7.74,-24.40,9.66,30.37
231017,0.01,-1.06,-0.44,-1.27,-28.90,18.72,30.41
231027,0.09,-1.11,-0.49,6.03,-21.73,26.31,30.41
231037,0.10,-1.12,-0.52,8.70,-11.62,34.09,30.32
231047,0.08,-1.16,-0.55,3.15,-10.35,43.04,30.41
231057,0.05,-1.23,-0.51,-15.18,-15.95,47.80,30.51
231067,0.10,-1.31,-0.44,-35.05,-20.50,42.64,30.46
231077,0.10,-1.35,-0.32,-52.58,-37.63,27.36,30.37
231087,0.08,-1.40,-0.21,-56.12,-62.14,5.37,30.46
231097,0.12,-1.46,-0.22,-52.79,-76.00,-18.06,30.46
231107,0.20,-1.52,-0.26,-49.76,-81.25,-38.85,30.46
231117,0.29,-1.49,-0.34,-46.00,-81.62,-60.82,30.41
231127,0.30,-1.41,-0.43,-42.53,-74.34,-77.39,30.32
231137,0.25,-1.35,-0.47,-48.92,-76.87,-90.63,30.51
231147,0.18,-1.31,-0.48,-61.31,-96.64,-101.63,30.41
231157,0.17,-1.20,-0.59,-58.35,-121.82,-112.17,30.51
231167,0.12,-1.07,-0.64,-45.69,-123.08,-115.37,30.46
231177,0.01,-1.06,-0.57,-25.54,-122.03,-104.34,30.37
231187,-0.05,-0.96,-0.58,9.02,-123.50,-82.21,30.46
231197,0.03,-0.89,-0.68,48.66,-115.07,-50.40,30.37
231207,0.22,-0.92,-0.83,68.50,-92.17,-17.45,30.46
231217,0.31,-0.91,-0.84,69.51,-72.17,10.55,30.41
231227,0.35,-0.90,-0.85,52.29,-41.11,37.08,30.41
231237,0.45,-0.93,-0.91,17.59,-13.80,54.78,30.41
231247,0.50,-1.03,-0.85,-7.85,20.87,70.66,30.41
231257,0.52,-1.14,-0.70,-18.32,53.11,84.49,30.46
231267,0.50,-1.28,-0.57,-15.45,79.16,90.09,30.37
231277,0.43,-1.35,-0.42,-7.02,96.27,84.93,30.37
231287,0.33,-1.40,-0.28,2.41,97.62,74.98,30.46
231297,0.20,-1.37,-0.18,12.93,83.18,62.67,30.37
231307,0.12,-1.38,-0.12,16.18,67.33,46.70,30.41
231317,0.07,-1.33,-0.11,21.60,42.84,33.73,30.41
231327,0.05,-1.27,-0.16,24.34,31.50,29.21,30.41
231337,0.03,-1.22,-0.20,22.14,25.97,33.01,30.41
231347,0.07,-1.20,-0.24,15.79,34.75,40.47,30.46
231357,0.05,-1.28,-0.14,10.89,41.86,42.38,30.37
231367,0.05,-1.36,-0.05,14.31,39.57,36.78,30.37
231377,0.05,-1.38,0.03,23.57,35.77,24.41,30.37
231387,-0.03,-1.37,0.02,32.79,22.76,12.64,30.46
231397,-0.09,-1.30,0.02,36.34,0.34,2.64,30.41
231407,-0.10,-1.21,-0.03,37.31,-21.57,-4.89,30.41
231417,-0.08,-1.16,-0.03,38.08,-40.40,-10.26,30.41
231427,-0.01,-1.12,-0.09,40.31,-57.28,-11.11,30.41
231437,0.09,-1.06,-0.24,36.95,-54.70,-5.97,30.46
231447,0.16,-1.08,-0.34,20.81,-37.63,3.97,30.37
231457,0.24,-1.05,-0.36,-2.93,-6.37,15.83,30.37
231467,0.17,-1.06,-0.27,-23.82,20.93,24.38,30.46
231477,0.12,-1.10,-0.23,-38.96,33.80,28.46,30.37
231487,0.15,-1.17,-0.14,-41.91,38.32,27.66,30.37
231497,0.17,-1.23,-0.08,-34.82,36.64,20.24,30.32
231507,0.15,-1.23,-0.04,-22.02,30.32,14.05,30.41
231517,0.12,-1.22,-0.04,-12.27,25.07,9.39,30.32
231527,0.09,-1.19,-0.09,-9.56,17.21,3.31,30.37
231537,0.02,-1.14,-0.15,-12.11,8.40,-1.01,30.27
231547,0.00,-1.08,-0.21,-16.08,3.16,-0.02,30.37
231557,0.00,-1.05,-0.25,-18.32,3.40,3.95,30.37
231567,0.02,-1.07,-0.26,-20.34,8.50,8.06,30.37
231577,0.04,-1.13,-0.21,-18.32,10.78,6.78,30.37
231587,0.04,-1.17,-0.15,-12.09,7.66,2.03,30.32
231597,0.04,-1.17,-0.14,-5.62,0.93,-3.63,30.41
231607,0.04,-1.15,-0.17,-0.63,-4.82,-6.49,30.41
231617,0.06,-1.11,-0.22,2.21,-7.95,-6.61,30.37
231627,0.08,-1.07,-0.25,2.44,-6.53,-6.08,30.32
231637,0.10,-1.04,-0.29,0.96,-1.24,-4.55,30.46
231647,0.13,-1.04,-0.32,-2.75,4.37,-2.63,30.37
231657,0.12,-1.03,-0.30,-6.49,7.73,-3.68,30.37
231667,0.09,-1.04,-0.28,-9.82,5.83,-5.91,30.37
231677,0.06,-1.05,-0.28,-14.17,2.63,-8.08,30.37
231687,0.03,-1.04,-0.27,-18.35,-3.68,-8.70,30.41
231697,0.04,-1.04,-0.27,-21.69,-7.59,-6.49,30.41
231707,0.09,-1.07,-0.27,-23.59,-5.62,-3.11,30.32
231717,0.13,-1.10,-0.26,-23.73,-1.57,-0.03,30.41
231727,0.17,-1.12,-0.26,-20.67,3.16,0.50,30.41
231737,0.19,-1.14,-0.27,-17.36,8.49,-0.47,30.37
231747,0.17,-1.13,-0.28,-14.38,12.08,-2.06,30.46
231757,0.16,-1.11,-0.29,-13.36,14.95,-2.93,30.37
231767,0.13,-1.09,-0.32,-18.11,17.18,-5.16,30.37
231777,0.10,-1.07,-0.32,-27.44,10.76,-9.73,30.27
231787,0.10,-1.06,-0.32,-36.92,-3.48,-16.06,30.32
231797,0.09,-1.07,-0.35,-47.80,-16.32,-25.30,30.32
231807,0.08,-1.07,-0.37,-60.27,-29.91,-33.19,30.32
231817,0.10,-1.04,-0.40,-67.37,-34.53,-35.98,30.32
231827,0.11,-1.03,-0.40,-64.99,-27.01,-30.23,30.32
231837,0.13,-1.05,-0.41,-53.57,-7.30,-15.04,30.37
231847,0.14,-1.09,-0.37,-36.14,21.76,3.27,30.37
231857,0.12,-1.15,-0.28,-16.82,41.98,16.24,30.37
231867,0.11,-1.18,-0.29,-4.72,54.63,20.89,30.37
231877,0.09,-1.18,-0.29,1.34,53.89,17.69,30.41
231887,0.06,-1.21,-0.28,4.41,41.11,9.33,30.32
231897,0.03,-1.19,-0.32,6.08,27.88,-0.73,30.41
231907,0.02,-1.13,-0.38,4.75,18.84,-6.06,30.41
231917,0.01,-1.05,-0.45,0.72,14.69,-4.38,30.32
231927,0.00,-1.03,-0.49,-6.63,16.37,1.10,30.46
231937,0.02,-1.02,-0.51,-15.19,23.63,9.10,30.46
231947,0.01,-1.04,-0.49,-21.85,32.31,20.58,30.46
231957,0.02,-1.06,-0.45,-22.50,41.47,33.07,30.37
231967,0.02,-1.13,-0.39,-17.91,50.82,43.30,30.37
231977,0.03,-1.19,-0.34,-8.69,55.05,49.66,30.41
231987,0.02,-1.22,-0.29,1.51,52.56,51.33,30.32
231997,0.01,-1.23,-0.29,11.53,46.95,48.64,30.41
232007,0.05,-1.23,-0.34,19.56,40.89,42.47,30.41
232017,0.08,-1.21,-0.37,21.79,33.02,31.05,30.37
232027,0.09,-1.20,-0.41,16.75,23.80,14.41,30.37
232037,0.07,-1.19,-0.43,7.59,6.61,-4.96,30.37
232047,0.04,-1.20,-0.42,-1.53,-16.14,-24.00,30.37
232057,0.03,-1.19,-0.48,-12.64,-46.06,-41.33,30.37
232067,0.08,-1.13,-0.58,-26.58,-65.33,-54.58,30.41
232077,0.13,-1.12,-0.64,-41.25,-67.33,-59.01,30.41
232087,0.14,-1.10,-0.63,-49.88,-53.01,-52.38,30.22
232097,0.20,-1.11,-0.57,-45.21,-26.67,-37.82,30.32
232107,0.21,-1.19,-0.48,-33.05,5.79,-22.70,30.37
232117,0.19,-1.31,-0.32,-12.52,23.50,-15.33,30.27
232127,0.12,-1.38,-0.17,10.17,23.63,-18.21,30.37
232137,0.05,-1.39,-0.10,35.34,7.77,-24.72,30.37
232147,0.03,-1.32,-0.21,56.37,-4.24,-27.54,30.37
232157,0.02,-1.20,-0.37,67.83,-9.97,-26.96,30.37
232167,0.06,-1.08,-0.52,67.05,-0.93,-22.96,30.41
232177,0.10,-0.97,-0.61,54.27,13.95,-19.44,30.32
232187,0.08,-0.95,-0.58,38.06,22.03,-18.34,30.32
232197,0.07,-0.91,-0.53,23.57,23.92,-18.47,30.37
232207,0.04,-0.89,-0.50,15.13,19.50,-18.11,30.41
232217,0.06,-0.88,-0.47,5.62,16.78,-16.61,30.37
232227,0.06,-0.86,-0.44,-5.08,11.21,-15.36,30.37
232237,0.05,-0.88,-0.40,-13.04,5.69,-13.53,30.37
232247,0.02,-0.89,-0.33,-14.24,0.63,-7.57,30.46
232257,-0.01,-0.88,-0.32,-5.98,1.08,7.39,30.37
232267,-0.01,-0.83,-0.36,7.37,15.08,30.40,30.32
232277,0.02,-0.82,-0.37,20.17,31.51,53.56,30.41
232287,0.05,-0.84,-0.36,23.68,39.83,66.63,30.32
232297,0.07,-0.84,-0.33,19.77,36.34,69.37,30.41
232307,0.11,-0.85,-0.33,12.09,26.37,62.00,30.41
232317,0.15,-0.89,-0.33,1.24,13.62,46.79,30.46
232327,0.18,-0.89,-0.34,-10.40,0.76,28.43,30.46
232337,0.18,-0.89,-0.34,-20.72,-11.44,10.49,30.37
232347,0.17,-0.90,-0.34,-30.02,-21.65,-4.47,30.37
232357,0.17,-0.90,-0.33,-35.62,-24.53,-12.56,30.41
232367,0.16,-0.92,-0.32,-35.57,-18.46,-13.08,30.32
232377,0.16,-0.96,-0.27,-29.92,-9.95,-9.37,30.41
232387,0.12,-1.01,-0.21,-19.79,-4.98,-3.91,30.32
232397,0.09,-1.03,-0.18,-7.97,-1.68,1.97,30.32
232407,0.06,-1.06,-0.15,3.66,-0.56,7.74,30.37
232417,0.05,-1.09,-0.12,13.71,-0.21,13.54,30.27
232427,0.05,-1.09,-0.14,22.05,2.93,17.21,30.37
232437,0.08,-1.07,-0.17,29.95,6.34,18.60,30.37
232447,0.11,-1.02,-0.22,34.78,9.85,15.97,30.46
232457,0.13,-0.96,-0.27,34.46,10.98,9.51,30.32
232467,0.18,-0.92,-0.34,28.93,8.24,-0.78,30.41
232477,0.20,-0.88,-0.36,19.40,-0.08,-15.16,30.41
232487,0.21,-0.84,-0.35,9.02,-11.34,-29.89,30.41
232497,0.16,-0.81,-0.36,0.14,-21.48,-40.82,30.32
232507,0.14,-0.81,-0.37,-5.37,-27.34,-43.13,30.37
232517,0.13,-0.84,-0.36,-7.53,-27.51,-38.58,30.46
232527,0.12,-0.86,-0.34,-6.23,-24.93,-30.35,30.46
232537,0.13,-0.90,-0.32,-2.50,-20.43,-20.56,30.27
232547,0.14,-0.92,-0.31,0.56,-13.28,-11.57,30.46
232557,0.16,-0.93,-0.28,5.05,-10.61,-2.64,30.41
232567,0.18,-0.96,-0.26,10.63,-5.86,4.64,30.41
232577,0.20,-0.99,-0.22,17.59,-2.35,9.04,30.32
232587,0.22,-1.00,-0.21,25.47,-1.33,9.15,30.41
232597,0.23,-1.00,-0.23,32.21,-0.96,7.47,30.37
232607,0.27,-0.99,-0.27,36.14,1.97,2.93,30.46
232617,0.29,-0.97,-0.31,32.81,6.84,-5.24,30.46
232627,0.28,-0.95,-0.33,22.61,7.31,-17.60,30.37
232637,0.26,-0.95,-0.29,9.57,0.98,-31.92,30.46
232647,0.22,-0.96,-0.26,-0.09,-7.89,-44.87,30.37
232657,0.18,-0.95,-0.24,-4.60,-14.98,-52.64,30.41
232667,0.15,-0.94,-0.22,-4.79,-16.41,-54.02,30.32
232677,0.12,-0.94,-0.16,-2.20,-12.75,-50.95,30.41
232687,0.12,-0.93,-0.14,2.08,-8.67,-46.84,30.32
232697,0.11,-0.91,-0.12,5.91,-6.90,-43.80,30.41
232707,0.10,-0.85,-0.13,9.94,-6.99,-39.31,30.41
232717,0.10,-0.78,-0.18,11.21,-8.79,-32.17,30.37
232727,0.09,-0.75,-0.22,12.96,-10.17,-22.69,30.37
232737,0.08,-0.74,-0.23,13.56,-10.72,-12.67,30.37
232747,0.07,-0.73,-0.26,11.63,-10.67,-1.97,30.37
232757,0.09,-0.73,-0.28,8.21,-9.79,8.72,30.37
232767,0.12,-0.73,-0.29,3.56,-5.37,17.85,30.41
232777,0.15,-0.73,-0.28,-1.86,-2.93,24.64,30.41
232787,0.16,-0.76,-0.26,-6.09,-2.67,28.00,30.41
232797,0.17,-0.82,-0.20,-8.26,-6.11,26.93,30.41
232807,0.18,-0.86,-0.16,-7.31,-11.85,23.54,30.41
232817,0.16,-0.90,-0.15,-4.15,-15.07,19.86,30.46
232827,0.13,-0.93,-0.11,-0.72,-17.48,17.97,30.37
232837,0.11,-0.93,-0.12,5.28,-18.63,17.97,30.37
232847,0.08,-0.94,-0.13,11.57,-17.95,20.44,30.37
232857,0.07,-0.92,-0.15,16.95,-16.81,24.44,30.37
232867,0.08,-0.90,-0.17,19.65,-12.00,28.12,30.41
232877,0.09,-0.88,-0.20,19.79,-8.63,29.45,30.41
232887,0.10,-0.87,-0.23,17.36,-6.15,28.27,30.41
232897,0.12,-0.86,-0.25,13.13,-6.78,25.24,30.41
232907,0.12,-0.87,-0.24,8.87,-8.95,20.46,30.37
232917,0.12,-0.92,-0.22,5.94,-11.73,15.13,30.37
232927,0.12,-0.93,-0.22,5.04,-14.67,9.11,30.46
232937,0.12,-0.96,-0.20,5.66,-16.15,3.88,30.37
232947,0.13,-0.97,-0.18,7.94,-15.53,-0.37,30.46
232957,0.14,-0.94,-0.19,10.21,-11.85,-3.39,30.37
232967,0.13,-0.92,-0.18,12.64,-8.87,-4.96,30.41
232977,0.13,-0.91,-0.19,15.66,-6.44,-4.61,30.32
232987,0.11,-0.90,-0.20,17.22,-3.65,-3.08,30.32
232997,0.08,-0.90,-0.21,17.02,-2.50,-0.90,30.37
233007,0.06,-0.90,-0.20,15.73,-2.64,1.73,30.41
233017,0.06,-0.91,-0.21,13.77,-1.80,4.70,30.37
233027,0.07,-0.93,-0.18,13.24,0.08,6.24,30.37
233037,0.11,-0.94,-0.15,13.63,0.38,5.30,30.37
233047,0.13,-0.94,-0.15,14.96,0.49,3.30,30.37
233057,0.14,-0.93,-0.15,15.24,1.95,0.35,30.37
233067,0.14,-0.92,-0.15,14.31,0.69,-2.27,30.41
233077,0.12,-0.90,-0.17,11.88,-0.12,-4.38,30.41
233087,0.09,-0.90,-0.16,8.87,0.06,-5.37,30.41
233097,0.08,-0.91,-0.17,6.00,-1.27,-5.05,30.41
233107,0.06,-0.92,-0.17,3.50,-1.63,-3.68,30.51
233117,0.08,-0.95,-0.13,2.27,-0.75,-1.86,30.46
233127,0.09,-0.97,-0.13,1.98,1.02,-0.46,30.46
233137,0.09,-0.97,-0.11,2.58,2.03,0.34,30.37
233147,0.11,-0.98,-0.10,3.07,1.80,0.60,30.46
233157,0.11,-0.97,-0.08,4.23,1.24,1.45,30.46
233167,0.11,-0.97,-0.09,5.73,3.24,2.47,30.41
233177,0.11,-0.97,-0.10,6.35,5.36,3.39,30.41
233187,0.10,-0.98,-0.11,6.99,6.84,3.74,30.41
233197,0.09,-0.99,-0.12,5.57,8.02,3.97,30.41
233207,0.08,-0.99,-0.11,3.07,8.29,4.52,30.41
233217,0.09,-1.00,-0.09,2.15,10.85,3.97,30.37
233227,0.10,-0.99,-0.08,1.97,12.03,2.92,30.37
233237,0.10,-1.00,-0.07,3.62,12.21,1.50,30.46
233247,0.09,-1.00,-0.07,6.67,9.85,1.45,30.37
233257,0.08,-0.99,-0.07,8.56,6.35,3.16,30.46
233267,0.08,-0.97,-0.10,9.18,3.62,5.24,30.32
233277,0.09,-0.96,-0.10,8.70,2.87,6.90,30.41
233287,0.10,-0.96,-0.10,7.05,1.57,6.95,30.41
233297,0.10,-0.98,-0.11,5.65,-0.58,5.54,30.41
233307,0.13,-0.97,-0.12,4.14,-0.32,2.99,30.46
233317,0.13,-0.98,-0.12,1.48,-1.62,-0.12,30.46
233327,0.13,-0.98,-0.11,-1.24,-2.47,-3.59,30.46
233337,0.12,-0.97,-0.10,-3.21,-3.10,-6.90,30.27
233347,0.12,-0.97,-0.09,-3.80,-2.82,-8.49,30.46
233357,0.11,-0.97,-0.08,-3.66,-2.47,-8.55,30.46
233367,0.08,-0.98,-0.07,-1.77,-2.26,-6.17,30.41
233377,0.06,-0.99,-0.06,0.52,-2.46,-1.92,30.32
233387,0.06,-1.01,-0.06,2.67,-1.65,2.81,30.41
233397,0.07,-1.01,-0.06,4.78,-0.11,6.89,30.37
233407,0.09,-1.02,-0.06,6.76,1.88,10.47,30.41
233417,0.10,-1.01,-0.08,7.88,3.69,12.40,30.46
233427,0.12,-1.03,-0.08,6.47,4.60,11.62,30.46
233437,0.14,-1.02,-0.08,4.12,2.47,7.97,30.46
233447,0.13,-1.03,-0.09,1.56,0.06,3.21,30.37
233457,0.12,-1.03,-0.09,0.37,-1.27,-0.61,30.46
233467,0.11,-1.03,-0.09,0.46,-1.98,-3.45,30.41
233477,0.12,-1.01,-0.08,0.93,-0.14,-4.05,30.41
233487,0.12,-1.00,-0.07,2.61,1.10,-3.86,30.41
233497,0.12,-0.99,-0.07,5.10,1.98,-3.65,30.41
233507,0.11,-0.98,-0.09,6.70,3.31,-3.05,30.41
233517,0.11,-0.98,-0.11,7.74,4.50,-2.27,30.32
233527,0.12,-0.97,-0.11,6.52,5.15,-2.53,30.37
233537,0.13,-0.95,-0.11,3.98,5.63,-3.63,30.46
233547,0.12,-0.94,-0.10,0.90,6.09,-5.40,30.37
233557,0.11,-0.94,-0.10,-1.34,5.95,-6.67,30.46
233567,0.09,-0.94,-0.09,-3.30,5.73,-6.32,30.37
233577,0.08,-0.94,-0.06,-4.02,4.89,-4.70,30.41
233587,0.07,-0.96,-0.04,-3.21,3.98,-2.81,30.51
233597,0.06,-0.95,-0.04,-0.89,4.05,-0.34,30.41
233607,0.07,-0.96,-0.05,1.44,4.44,2.69,30.41
233617,0.07,-0.95,-0.05,3.05,5.36,5.82,30.46
233627,0.08,-0.93,-0.07,2.75,6.60,8.26,30.37
233637,0.10,-0.94,-0.07,1.54,7.08,9.83,30.46
233647,0.11,-0.96,-0.07,0.29,6.76,9.86,30.46
233657,0.11,-0.99,-0.08,-0.49,6.79,8.21,30.46
233667,0.11,-1.02,-0.08,-0.78,6.56,5.83,30.46
233677,0.11,-1.04,-0.07,0.21,7.36,2.89,30.41
233687,0.11,-1.04,-0.08,0.27,8.02,0.32,30.32
233697,0.10,-1.03,-0.10,0.18,7.63,-1.37,30.41
233707,0.11,-1.02,-0.09,-0.93,10.26,-2.96,30.37
233717,0.10,-1.02,-0.07,-3.16,11.19,-4.66,30.41
233727,0.10,-1.02,-0.05,-4.06,10.82,-6.95,30.46
233737,0.09,-1.03,-0.04,-2.89,9.74,-8.58,30.46
233747,0.08,-1.01,-0.03,-0.93,7.08,-9.31,30.27
233757,0.08,-1.00,-0.03,1.45,4.70,-8.37,30.37
233767,0.09,-0.98,-0.05,2.76,3.73,-6.70,30.27
233777,0.09,-0.97,-0.06,1.89,5.85,-5.21,30.41
233787,0.07,-0.97,-0.05,0.40,4.09,-4.46,30.41
233797,0.08,-0.98,-0.06,-0.90,2.00,-3.10,30.51
233807,0.07,-0.98,-0.06,-1.54,-0.11,-1.07,30.41
233817,0.07,-0.99,-0.07,-1.85,-0.49,1.47,30.41
233827,0.08,-0.99,-0.07,-1.79,1.02,4.20,30.46
233837,0.09,-1.01,-0.07,-2.11,3.30,6.69,30.37
233847,0.09,-1.04,-0.07,-2.64,3.57,8.49,30.37
233857,0.10,-1.05,-0.05,-2.72,2.49,8.95,30.46
233867,0.10,-1.05,-0.06,-2.06,3.34,8.35,30.46
233877,0.13,-1.06,-0.07,-1.45,5.04,6.96,30.41
233887,0.13,-1.06,-0.07,-1.21,6.00,4.52,30.41
233897,0.13,-1.05,-0.07,-1.88,5.02,0.98,30.32
233907,0.12,-1.04,-0.06,-2.56,4.21,-2.98,30.51
233917,0.11,-1.05,-0.07,-3.53,3.71,-5.27,30.32
233927,0.09,-1.03,-0.08,-4.41,3.71,-5.45,30.37
233937,0.09,-1.04,-0.06,-4.46,4.21,-4.11,30.46
233947,0.09,-1.05,-0.06,-4.05,4.84,-2.92,30.37
233957,0.09,-1.04,-0.04,-3.62,4.50,-2.24,30.46
233967,0.09,-1.03,-0.03,-3.40,4.06,-2.11,30.37
233977,0.11,-1.03,-0.03,-2.47,3.66,-2.35,30.41
233987,0.10,-1.02,-0.05,-1.57,2.79,-2.05,30.32
233997,0.11,-1.02,-0.06,-1.51,3.31,-1.39,30.41
234007,0.09,-1.01,-0.07,-2.02,3.31,-0.52,30.41
234017,0.11,-1.01,-0.07,-2.95,4.14,0.35,30.46
234027,0.10,-1.01,-0.07,-4.60,3.71,0.90,30.37
234037,0.09,-1.02,-0.06,-5.77,2.63,1.30,30.46
234047,0.11,-1.02,-0.05,-5.60,1.95,1.91,30.46
234057,0.12,-1.03,-0.05,-4.69,1.76,2.09,30.46
234067,0.13,-1.04,-0.05,-3.44,2.58,1.80,30.46
234077,0.13,-1.03,-0.05,-1.76,3.51,1.44,30.32
234087,0.12,-1.03,-0.06,-0.24,3.91,1.30,30.41
234097,0.12,-1.03,-0.07,0.40,3.53,1.66,30.41
234107,0.12,-1.01,-0.08,0.00,4.43,2.29,30.32
234117,0.14,-1.00,-0.08,-1.18,6.15,1.62,30.41
234127,0.14,-1.02,-0.08,-2.44,6.93,-0.69,30.41
234137,0.14,-1.02,-0.08,-3.71,7.34,-4.06,30.46
234147,0.14,-1.04,-0.07,-3.76,7.47,-7.80,30.46
234157,0.14,-1.03,-0.07,-3.77,6.00,-11.01,30.27
234167,0.14,-1.04,-0.08,-3.89,5.95,-13.59,30.37
234177,0.13,-1.05,-0.08,-3.94,6.37,-16.00,30.46
234187,0.14,-1.08,-0.08,-3.40,6.93,-17.54,30.51
234197,0.15,-1.11,-0.11,-1.63,9.45,-19.94,30.32
234207,0.17,-1.16,-0.12,-0.46,13.21,-23.57,30.51
234217,0.18,-1.17,-0.11,-1.92,15.85,-29.71,30.41
234227,0.21,-1.16,-0.07,-4.12,16.78,-39.21,30.32
234237,0.20,-1.11,-0.02,-7.10,13.85,-50.29,30.46
234247,0.18,-1.07,0.01,-9.59,11.19,-58.95,30.37
234257,0.16,-1.01,0.01,-9.37,9.59,-62.92,30.46
234267,0.12,-0.97,-0.01,-6.75,10.72,-60.34,30.37
234277,0.07,-0.93,-0.05,-3.40,11.94,-51.11,30.46
234287,0.03,-0.91,-0.07,-1.16,13.24,-37.94,30.41
234297,-0.00,-0.91,-0.05,-0.02,11.22,-22.67,30.32
234307,0.01,-0.92,-0.06,0.46,10.76,-7.97,30.41
234317,0.04,-0.92,-0.02,0.17,11.22,4.09,30.41
234327,0.07,-0.95,0.00,0.96,9.73,12.40,30.37
234337,0.11,-0.97,0.01,2.69,7.31,17.54,30.32
234347,0.17,-0.98,0.01,3.95,6.18,19.34,30.46
234357,0.18,-1.01,0.02,6.93,2.17,18.53,30.37
234367,0.20,-1.03,0.01,9.39,1.89,16.00,30.46
234377,0.22,-1.03,-0.01,10.14,2.17,12.20,30.46
234387,0.22,-1.03,-0.02,8.11,1.73,6.99,30.46
234397,0.22,-1.01,-0.02,4.81,0.56,1.71,30.32
234407,0.22,-1.00,-0.03,3.50,-0.69,-3.30,30.41
234417,0.21,-1.01,-0.04,3.53,-1.02,-6.89,30.41
234427,0.18,-1.01,-0.06,3.79,-2.55,-7.91,30.41
234437,0.19,-1.00,-0.07,2.52,-1.68,-7.18,30.32
234447,0.19,-0.98,-0.06,1.25,-0.05,-5.42,30.41
234457,0.19,-0.98,-0.05,0.06,1.89,-3.69,30.37
234467,0.17,-0.98,-0.04,0.11,2.14,-1.91,30.37
234477,0.17,-0.99,-0.03,0.98,1.71,0.34,30.37
234487,0.16,-0.99,-0.03,2.41,1.27,3.19,30.46
234497,0.17,-1.00,-0.01,3.71,2.12,5.39,30.46
234507,0.19,-1.01,-0.02,3.91,3.76,6.79,30.41
234517,0.19,-1.00,-0.04,3.40,4.56,6.92,30.41
234527,0.19,-1.00,-0.05,2.06,5.92,5.85,30.41
234537,0.19,-1.01,-0.06,-0.56,6.56,4.52,30.32
234547,0.20,-1.01,-0.05,-3.05,5.79,3.44,30.37
234557,0.18,-1.02,-0.04,-6.18,5.02,2.55,30.46
234567,0.18,-1.02,-0.03,-7.83,1.04,2.70,30.37
234577,0.17,-1.02,-0.01,-8.49,0.17,4.24,30.46
234587,0.18,-1.02,-0.01,-6.89,0.79,6.14,30.37
234597,0.17,-1.02,-0.02,-5.94,2.12,8.35,30.46
234607,0.18,-1.04,-0.02,-5.59,1.89,9.05,30.41
234617,0.18,-1.03,-0.01,-5.02,1.10,9.15,30.32
234627,0.16,-1.04,-0.02,-4.55,0.44,9.83,30.51
234637,0.17,-1.05,-0.03,-3.73,1.22,10.87,30.32
234647,0.18,-1.04,-0.01,-2.50,2.15,11.59,30.32
234657,0.19,-1.04,-0.02,-1.16,4.26,11.54,30.37
234667,0.19,-1.05,-0.02,-0.61,4.55,10.11,30.37
234677,0.20,-1.04,-0.03,-0.81,2.81,7.22,30.37
234687,0.20,-1.03,-0.01,-0.99,2.46,4.27,30.46
234697,0.20,-1.04,-0.03,-1.22,1.83,1.83,30.46
234707,0.20,-1.04,-0.03,-0.87,1.79,-0.43,30.46
234717,0.19,-1.03,-0.04,-0.03,2.08,-2.20,30.41
234727,0.19,-1.02,-0.04,0.66,1.79,-3.36,30.32
234737,0.19,-1.02,-0.05,0.29,2.93,-4.20,30.41
234747,0.18,-1.00,-0.04,-1.13,2.92,-4.66,30.41
234757,0.18,-1.00,-0.03,-1.94,3.25,-5.02,30.41
234767,0.17,-0.99,-0.04,-2.34,3.13,-5.11,30.37
234777,0.17,-1.00,-0.03,-2.63,3.27,-5.39,30.37
234787,0.17,-1.01,-0.03,-2.84,3.22,-5.85,30.37
234797,0.16,-1.01,-0.02,-3.16,3.11,-6.67,30.46
234807,0.16,-1.01,-0.03,-3.56,3.40,-7.36,30.41
234817,0.16,-0.99,-0.03,-5.44,4.09,-7.33,30.32
234827,0.16,-0.97,-0.03,-7.68,2.99,-6.41,30.41
234837,0.16,-0.97,-0.02,-9.68,2.69,-4.87,30.41
234847,0.14,-0.98,-0.01,-10.02,2.46,-2.61,30.41
234857,0.14,-0.99,-0.02,-9.34,2.87,0.06,30.37
234867,0.15,-1.01,-0.01,-7.98,2.44,2.99,30.37
234877,0.15,-1.03,-0.02,-7.28,2.90,4.96,30.37
234887,0.15,-1.04,-0.01,-6.67,2.31,5.95,30.37
234897,0.17,-1.04,-0.01,-6.44,1.73,6.41,30.37
234907,0.18,-1.03,-0.01,-6.27,2.75,6.50,30.27
234917,0.18,-1.03,-0.01,-5.95,3.62,6.00,30.41
234927,0.18,-1.04,-0.01,-5.98,2.99,4.99,30.51
234937,0.18,-1.05,-0.02,-5.40,0.32,3.65,30.41
234947,0.17,-1.07,-0.04,-4.95,-0.38,2.61,30.46
234957,0.17,-1.09,-0.05,-4.08,0.06,2.05,30.41
234967,0.16,-1.11,-0.06,-2.50,2.37,2.08,30.37
234977,0.16,-1.12,-0.07,-0.56,4.63,2.31,30.46
234987,0.17,-1.10,-0.07,1.16,5.89,1.66,30.46
234997,0.17,-1.09,-0.06,2.60,7.94,-0.03,30.46
235007,0.17,-1.06,-0.06,2.79,8.76,-1.89,30.46
235017,0.15,-1.05,-0.06,0.69,8.46,-3.16,30.41
235027,0.14,-1.03,-0.05,-1.04,6.40,-3.08,30.32
235037,0.14,-1.01,-0.05,-4.14,7.47,-2.00,30.32
235047,0.11,-1.01,-0.04,-6.76,6.72,-0.14,30.32
235057,0.12,-1.01,-0.03,-9.59,6.76,2.14,30.41
235067,0.12,-1.00,-0.00,-10.21,6.14,3.04,30.37
235077,0.12,-1.02,0.02,-9.36,5.36,4.09,30.37
235087,0.14,-1.02,0.04,-7.18,3.30,4.95,30.37
235097,0.16,-1.03,0.04,-4.09,2.43,5.02,30.37
235107,0.16,-1.02,0.04,-1.50,0.03,4.89,30.37
235117,0.17,-1.01,0.01,0.14,-0.46,4.34,30.41
235127,0.18,-1.00,-0.00,0.61,0.29,4.27,30.41
235137,0.19,-0.99,-0.02,-0.52,1.07,4.38,30.41
235147,0.19,-0.99,-0.02,-2.11,0.63,4.02,30.51
235157,0.19,-0.99,-0.03,-3.91,-0.31,3.25,30.32
235167,0.21,-0.99,-0.03,-4.92,-0.29,2.03,30.37
235177,0.21,-1.00,-0.02,-5.69,-0.11,1.07,30.37
235187,0.21,-1.01,-0.02,-5.40,-0.02,-0.02,30.46
235197,0.20,-1.02,-0.02,-4.43,-0.03,-0.98,30.46
235207,0.21,-1.03,-0.02,-3.36,0.32,-1.28,30.37
235217,0.20,-1.04,-0.02,-2.26,1.94,-1.33,30.41
235227,0.22,-1.03,-0.01,-1.45,3.31,-1.44,30.41
235237,0.21,-1.05,-0.03,-1.05,4.21,-2.12,30.32
235247,0.21,-1.04,-0.02,-1.79,5.33,-4.32,30.41
235257,0.20,-1.03,-0.03,-2.69,4.09,-5.92,30.37
235267,0.20,-1.01,-0.02,-3.86,3.98,-7.47,30.46
235277,0.19,-1.01,-0.03,-4.35,3.18,-8.53,30.37
235287,0.18,-1.01,-0.03,-5.01,3.24,-8.53,30.37
235297,0.16,-1.00,-0.03,-5.77,1.91,-7.39,30.37
235307,0.15,-0.99,-0.02,-5.77,3.04,-5.08,30.46
235317,0.15,-0.99,-0.01,-5.62,4.05,-2.81,30.41
235327,0.15,-0.99,-0.00,-5.47,4.50,-0.66,30.41
235337,0.15,-1.00,0.00,-4.78,4.40,0.81,30.32
235347,0.15,-1.01,0.00,-4.12,4.34,1.05,30.37
235357,0.16,-1.01,-0.01,-3.83,3.83,1.74,30.41
