Millis,Acce_X,Acce_Y,Acce_Z,Gyro_X,Gyro_Y,Gyro_Z,Temp
91057,0.15,-0.31,0.93,1.28,-14.34,26.47,31.92
91067,0.13,-0.30,0.93,-1.31,-8.14,27.47,32.01
91077,0.11,-0.29,0.96,-2.61,-1.18,29.51,31.92
91087,0.09,-0.29,0.98,-3.76,1.48,29.57,31.92
91097,0.06,-0.27,1.00,-5.63,-2.52,30.40,31.92
91107,0.06,-0.29,1.01,-5.77,-9.62,30.73,32.01
91117,0.09,-0.31,1.02,-4.32,-12.05,29.02,31.92
91127,0.13,-0.33,1.03,-4.27,-12.87,25.08,32.06
91137,0.15,-0.33,1.04,-4.47,-14.75,18.17,31.97
91147,0.17,-0.31,1.04,-3.50,-12.11,12.52,31.87
91157,0.15,-0.30,1.07,-3.07,-9.86,7.39,31.97
91167,0.14,-0.28,1.07,-1.51,-3.19,4.17,32.06
91177,0.09,-0.26,1.10,0.37,1.82,2.00,31.78
91187,0.06,-0.23,1.11,2.49,4.84,-0.26,31.97
91197,0.02,-0.20,1.10,3.82,5.91,-2.21,31.92
91207,-0.01,-0.15,1.07,1.69,4.64,-1.88,31.92
91217,-0.02,-0.12,1.07,-0.31,2.75,0.26,31.92
91227,0.00,-0.11,1.07,-3.79,4.87,2.06,31.92
91237,0.01,-0.11,1.08,-7.92,6.09,0.98,32.01
91247,-0.01,-0.10,1.10,-9.86,6.15,-1.30,31.92
91257,-0.03,-0.10,1.11,-10.31,2.78,-3.73,31.97
91267,-0.05,-0.08,1.11,-10.75,-0.89,-6.47,32.01
91277,-0.08,-0.08,1.12,-9.98,-3.42,-10.84,31.97
91287,-0.14,-0.04,1.11,-10.69,-8.09,-16.46,31.97
91297,-0.21,-0.02,1.12,-11.51,-19.34,-22.14,31.87
91307,-0.22,0.01,1.10,-7.13,-30.53,-24.85,31.97
91317,-0.21,0.09,1.03,-2.02,-36.46,-21.80,31.97
91327,-0.15,0.15,0.97,-2.64,-34.95,-9.59,31.97
91337,-0.07,0.12,1.02,-5.37,-32.41,1.57,31.97
91347,0.04,0.00,1.06,-4.69,-25.53,7.92,31.92
91357,0.12,-0.07,1.11,-4.18,-17.34,9.18,32.01
91367,0.19,-0.15,1.16,-1.88,-10.44,7.11,31.82
91377,0.22,-0.18,1.17,3.74,-7.39,2.02,32.01
91387,0.27,-0.22,1.16,10.84,10.23,-1.68,32.01
91397,0.24,-0.24,1.22,11.60,6.03,-11.37,31.92
91407,0.22,-0.16,1.19,14.18,9.97,-18.55,31.92
91417,0.16,-0.12,1.19,17.28,12.69,-24.15,31.97
91427,0.10,-0.09,1.19,21.66,13.66,-28.50,31.97
91437,0.02,-0.05,1.13,25.83,13.82,-30.20,31.97
91447,-0.02,-0.00,1.06,26.78,15.11,-24.58,31.97
91457,-0.01,0.01,1.02,20.11,13.57,-13.62,31.87
91467,0.04,-0.04,1.05,10.76,13.65,-1.89,31.97
91477,0.10,-0.12,1.13,5.98,14.24,5.08,31.97
91487,0.16,-0.21,1.15,6.21,15.74,3.69,31.97
91497,0.18,-0.32,1.20,5.04,11.25,-5.59,31.92
91507,0.19,-0.38,1.22,9.19,4.95,-21.98,31.92
91517,0.18,-0.39,1.20,14.18,5.30,-39.42,31.92
91527,0.17,-0.35,1.13,20.37,11.18,-50.53,31.92
91537,0.10,-0.31,1.08,25.42,19.22,-51.25,31.92
91547,0.03,-0.25,1.02,26.52,28.58,-44.05,31.92
91557,0.00,-0.24,1.01,21.65,34.69,-38.08,31.97
91567,-0.04,-0.24,1.05,15.27,31.77,-34.98,31.87
91577,-0.08,-0.27,1.08,9.36,23.11,-33.04,31.97
91587,-0.08,-0.34,1.13,2.79,7.30,-33.77,31.87
91597,-0.09,-0.40,1.15,4.66,-4.58,-35.15,31.87
91607,-0.06,-0.42,1.13,8.05,-9.18,-36.37,31.97
91617,-0.01,-0.41,1.10,13.53,-9.31,-37.76,31.87
91627,0.02,-0.38,1.05,18.27,-6.06,-39.66,31.97
91637,0.03,-0.31,1.01,21.11,-0.35,-40.92,31.97
91647,0.02,-0.27,0.96,21.08,5.31,-40.34,32.01
91657,0.01,-0.20,0.91,19.53,8.78,-39.10,31.92
91667,-0.02,-0.15,0.89,14.66,11.05,-37.08,31.92
91677,-0.04,-0.11,0.88,8.05,10.89,-32.78,31.92
91687,-0.06,-0.12,0.91,0.34,7.94,-27.10,31.97
91697,-0.05,-0.16,0.94,-5.77,2.99,-21.98,31.92
91707,-0.02,-0.20,0.95,-7.59,1.44,-16.82,31.92
91717,0.03,-0.24,0.99,-7.54,0.56,-14.08,31.97
91727,0.06,-0.28,1.02,-4.21,-0.89,-14.95,31.87
91737,0.07,-0.28,1.01,-0.89,-1.15,-18.17,31.87
91747,0.07,-0.26,1.00,1.73,-0.31,-21.27,31.87
91757,0.04,-0.23,0.97,3.56,2.14,-22.92,31.97
91767,0.00,-0.16,0.92,3.25,5.71,-20.79,31.97
91777,-0.03,-0.13,0.89,-2.90,9.04,-14.60,31.97
91787,-0.04,-0.14,0.91,-12.14,7.21,-8.09,31.92
91797,-0.02,-0.19,0.93,-19.79,4.95,-4.47,32.01
91807,0.02,-0.24,0.96,-24.03,0.95,-4.58,31.92
91817,0.04,-0.27,0.98,-25.42,-1.88,-5.79,32.01
91827,0.06,-0.29,0.99,-24.23,-0.60,-6.17,31.92
91837,0.06,-0.30,1.02,-20.96,2.38,-6.24,32.01
91847,0.03,-0.32,1.03,-18.41,5.91,-4.89,31.92
91857,0.01,-0.33,1.04,-16.66,3.62,-2.67,31.87
91867,-0.02,-0.33,1.05,-18.84,-0.72,-0.75,31.97
91877,-0.03,-0.34,1.06,-22.43,-8.61,1.08,31.97
91887,0.02,-0.37,1.05,-25.24,-12.56,4.26,31.97
91897,0.08,-0.40,1.05,-30.03,-12.26,3.53,31.87
91907,0.14,-0.46,1.08,-35.48,-6.73,2.55,31.87
91917,0.15,-0.49,1.12,-31.50,-8.84,-1.65,31.92
91927,0.19,-0.52,1.09,-23.65,1.54,-4.03,31.92
91937,0.19,-0.51,1.08,-14.78,8.95,-5.15,31.92
91947,0.18,-0.48,1.04,-6.89,17.22,-5.65,32.01
91957,0.11,-0.43,1.03,-3.57,18.98,-5.60,31.92
91967,0.06,-0.38,1.00,-4.40,15.51,-3.82,31.92
91977,0.01,-0.36,0.99,-5.08,6.29,-1.79,31.92
91987,-0.02,-0.36,0.99,-6.26,-0.79,1.60,31.78
91997,-0.01,-0.37,0.97,-6.92,-6.55,7.40,31.87
92007,0.05,-0.38,0.93,-5.50,-2.89,12.96,31.87
92017,0.10,-0.42,0.93,-3.80,4.60,14.92,31.97
92027,0.10,-0.44,0.96,-3.42,11.27,13.30,31.97
92037,0.07,-0.46,1.03,-3.50,8.41,9.04,31.87
92047,0.05,-0.47,1.06,-3.80,1.88,5.71,31.97
92057,0.06,-0.46,1.03,-4.41,-5.47,4.79,31.87
92067,0.09,-0.44,1.00,-6.87,-8.09,7.60,31.92
92077,0.13,-0.46,0.99,-9.83,-6.12,11.80,31.92
92087,0.19,-0.49,1.00,-11.82,-0.03,13.15,31.92
92097,0.20,-0.53,1.01,-14.35,5.79,8.70,31.92
92107,0.15,-0.58,1.06,-13.44,5.30,3.39,31.82
92117,0.10,-0.59,1.09,-7.59,1.95,1.15,31.87
92127,0.09,-0.57,1.07,-0.55,0.81,2.58,31.92
92137,0.07,-0.55,1.06,6.46,0.75,6.47,31.97
92147,0.07,-0.49,1.01,11.27,1.94,9.05,31.87
92157,0.03,-0.40,0.96,7.71,0.70,8.58,31.97
92167,-0.01,-0.34,0.92,-2.93,-3.10,8.05,31.97
92177,-0.03,-0.32,0.91,-14.02,-4.58,11.71,31.87
92187,-0.02,-0.31,0.93,-24.14,0.37,18.29,31.87
92197,-0.04,-0.36,1.00,-30.75,5.25,22.69,31.87
92207,-0.04,-0.43,1.07,-33.30,11.88,25.86,31.92
92217,-0.04,-0.50,1.14,-31.50,10.09,23.15,31.92
92227,-0.05,-0.52,1.17,-27.57,-1.95,13.68,32.01
92237,-0.09,-0.52,1.14,-22.15,-22.99,3.83,31.82
92247,-0.07,-0.48,1.05,-17.01,-40.52,-2.66,31.82
92257,-0.01,-0.45,0.96,-12.72,-42.93,-2.60,31.92
92267,0.04,-0.43,0.89,-10.60,-30.52,2.00,31.92
92277,0.02,-0.41,0.88,-11.45,-16.27,6.76,31.97
92287,-0.02,-0.39,0.87,-15.33,-11.69,8.15,32.06
92297,-0.03,-0.37,0.85,-19.27,-18.14,6.41,31.97
92307,-0.05,-0.38,0.84,-21.30,-28.82,4.29,31.87
92317,-0.04,-0.38,0.80,-21.01,-32.93,8.06,31.87
92327,-0.01,-0.38,0.77,-16.76,-24.15,16.93,31.87
92337,0.00,-0.44,0.82,-11.97,-12.63,27.50,31.87
92347,0.01,-0.48,0.87,-6.69,-3.60,29.11,31.92
92357,0.02,-0.50,0.89,-3.45,-2.49,24.03,31.82
92367,0.03,-0.45,0.86,-1.22,-10.93,16.37,31.92
92377,0.02,-0.39,0.77,0.27,-15.76,12.81,31.92
92387,0.02,-0.32,0.73,-3.39,-10.27,11.79,31.92
92397,-0.00,-0.29,0.72,-8.26,0.95,14.27,31.82
92407,-0.07,-0.30,0.75,-12.72,13.47,18.79,31.92
92417,-0.12,-0.32,0.76,-18.92,19.50,24.61,31.87
92427,-0.16,-0.34,0.77,-26.41,17.33,30.84,31.97
92437,-0.16,-0.35,0.75,-33.18,10.81,37.89,31.97
92447,-0.12,-0.36,0.71,-39.36,6.84,45.86,31.87
92457,-0.05,-0.35,0.69,-48.60,6.81,54.69,31.87
92467,0.03,-0.38,0.71,-60.87,10.11,58.43,31.87
92477,0.03,-0.47,0.81,-70.31,11.48,55.15,31.97
92487,0.01,-0.55,0.88,-74.73,6.95,47.86,31.87
92497,-0.02,-0.62,0.95,-74.70,-0.87,39.88,31.92
92507,-0.03,-0.64,1.01,-68.82,-7.51,36.08,31.82
92517,0.00,-0.67,1.01,-59.39,-10.58,36.72,32.01
92527,0.01,-0.67,1.03,-51.88,-10.79,37.76,31.82
92537,0.03,-0.69,1.05,-45.13,-11.22,37.54,31.92
92547,0.05,-0.66,1.07,-41.48,-12.55,35.34,31.87
92557,0.12,-0.66,1.10,-34.87,-18.38,35.01,31.92
92567,0.21,-0.69,1.08,-27.65,-27.56,31.21,31.92
92577,0.26,-0.73,1.05,-21.48,-31.47,21.82,31.87
92587,0.30,-0.74,1.02,-17.77,-29.56,8.53,31.97
92597,0.28,-0.74,1.00,-16.96,-23.04,-3.48,31.87
92607,0.22,-0.72,1.00,-15.97,-13.27,-12.63,31.87
92617,0.16,-0.67,0.98,-13.15,-2.03,-16.09,31.87
92627,0.08,-0.66,0.96,-10.38,5.53,-15.74,31.87
92637,0.02,-0.64,0.93,-7.08,8.23,-16.20,31.87
92647,-0.07,-0.59,0.92,-6.38,3.21,-14.18,31.82
92657,-0.05,-0.53,0.91,-8.17,-2.81,-8.81,31.92
92667,-0.03,-0.49,0.91,-12.63,-5.94,1.24,31.92
92677,0.10,-0.56,0.92,-16.08,-0.92,5.02,31.92
92687,0.16,-0.65,0.98,-16.23,8.89,2.15,31.92
92697,0.17,-0.75,1.02,-13.36,19.10,-4.26,32.01
92707,0.13,-0.79,1.10,-4.84,20.21,-13.04,31.92
92717,0.08,-0.75,1.09,4.06,17.89,-22.66,31.97
92727,0.03,-0.68,1.04,7.97,12.73,-28.75,31.87
92737,-0.04,-0.63,1.03,8.79,5.73,-29.98,31.87
92747,-0.07,-0.59,0.99,9.63,5.50,-28.46,31.78
92757,-0.11,-0.54,0.96,9.65,7.27,-23.36,31.87
92767,-0.12,-0.54,0.93,8.58,12.20,-15.98,31.87
92777,-0.14,-0.51,0.93,6.40,15.97,-8.27,31.78
92787,-0.14,-0.54,0.96,4.58,15.63,-1.74,31.87
92797,-0.10,-0.54,0.98,2.38,11.94,0.29,31.92
92807,-0.08,-0.56,1.02,0.03,6.20,0.05,31.92
92817,-0.05,-0.59,1.03,0.95,1.44,-2.06,31.92
92827,-0.03,-0.60,1.01,3.02,-1.47,-2.95,31.92
92837,0.01,-0.60,0.99,3.88,-0.63,-1.16,31.92
92847,0.04,-0.62,0.97,6.23,4.96,0.84,31.97
92857,0.08,-0.62,0.95,8.02,12.69,0.61,31.92
92867,0.10,-0.61,0.93,7.65,19.57,-1.36,31.87
92877,0.11,-0.59,0.94,6.72,25.51,-3.94,31.87
92887,0.10,-0.59,0.95,6.93,30.41,-6.46,31.87
92897,0.08,-0.59,0.96,6.89,33.25,-9.42,31.97
92907,0.02,-0.59,0.98,4.96,27.10,-14.72,31.87
92917,-0.03,-0.60,1.00,3.92,15.92,-19.13,31.78
92927,-0.06,-0.62,0.99,4.18,2.56,-24.24,31.97
92937,-0.07,-0.60,0.96,2.03,-2.21,-26.95,31.87
92947,-0.02,-0.56,0.88,-2.26,10.35,-23.10,31.92
92957,-0.06,-0.53,0.96,-4.52,16.35,-14.76,31.92
92967,-0.01,-0.52,0.94,-1.98,34.99,-5.27,31.92
92977,-0.03,-0.56,1.00,-0.58,42.95,0.52,31.92
92987,-0.03,-0.63,1.10,4.09,39.62,2.17,31.82
92997,-0.06,-0.70,1.19,13.39,24.58,-4.14,31.92
93007,-0.07,-0.73,1.20,20.34,5.27,-11.56,31.82
93017,-0.06,-0.70,1.15,26.61,-9.79,-14.85,31.87
93027,-0.03,-0.67,1.10,32.41,-16.73,-14.21,31.87
93037,0.02,-0.64,1.03,37.37,-15.82,-12.00,31.87
93047,0.09,-0.62,0.92,38.73,-8.89,-8.40,31.87
93057,0.13,-0.62,0.89,39.98,-0.05,-5.48,31.78
93067,0.16,-0.60,0.89,39.39,6.46,-6.76,31.87
93077,0.13,-0.62,0.91,34.17,4.34,-12.69,31.97
93087,0.06,-0.65,0.98,27.91,-9.83,-22.84,31.97
93097,-0.02,-0.67,1.05,24.58,-33.56,-32.67,31.87
93107,-0.04,-0.66,1.03,29.69,-56.27,-37.69,31.87
93117,0.01,-0.63,0.92,38.87,-70.29,-36.72,31.92
93127,0.13,-0.54,0.77,43.98,-64.64,-31.79,31.92
93137,0.24,-0.46,0.66,40.69,-44.81,-27.83,31.92
93147,0.31,-0.43,0.60,29.28,-16.06,-27.82,31.92
93157,0.28,-0.46,0.69,13.48,7.21,-34.98,31.92
93167,0.13,-0.54,0.87,-2.17,12.84,-44.84,31.92
93177,-0.05,-0.58,1.01,-10.00,-1.94,-53.59,31.82
93187,-0.16,-0.60,1.07,-3.10,-28.24,-52.50,31.97
93197,-0.13,-0.55,1.01,10.53,-50.03,-44.44,31.92
93207,-0.03,-0.47,0.88,19.02,-54.15,-30.00,31.97
93217,0.15,-0.40,0.71,21.56,-35.54,-15.05,31.78
93227,0.25,-0.37,0.65,17.53,0.76,-2.70,31.97
93237,0.25,-0.37,0.66,10.23,34.70,5.36,31.87
93247,0.16,-0.43,0.81,-0.49,50.79,5.69,31.97
93257,0.01,-0.48,0.93,-14.23,48.35,0.06,31.87
93267,-0.15,-0.52,1.03,-23.31,24.24,-5.59,31.87
93277,-0.21,-0.50,1.04,-29.40,-7.34,-7.98,31.87
93287,-0.17,-0.47,1.00,-29.02,-37.63,-4.73,31.82
93297,-0.03,-0.44,0.84,-21.42,-48.38,2.05,31.92
93307,0.18,-0.42,0.69,-13.25,-36.17,8.53,31.92
93317,0.33,-0.39,0.58,-11.07,-10.00,13.27,31.92
93327,0.40,-0.35,0.56,-15.79,26.73,16.60,31.92
93337,0.34,-0.40,0.64,-25.36,62.31,14.69,31.92
93347,0.16,-0.48,0.80,-38.93,85.88,8.43,31.92
93357,-0.04,-0.54,0.97,-47.62,88.60,3.22,31.87
93367,-0.22,-0.57,1.10,-50.24,68.60,1.16,31.92
93377,-0.31,-0.60,1.16,-45.36,35.50,0.87,31.87
93387,-0.28,-0.58,1.12,-35.39,-0.40,1.60,31.87
93397,-0.14,-0.56,0.99,-26.60,-22.00,4.40,31.97
93407,0.02,-0.51,0.86,-23.51,-24.81,6.14,31.87
93417,0.16,-0.47,0.74,-27.10,-12.34,6.43,31.87
93427,0.21,-0.44,0.74,-37.91,7.48,5.27,31.87
93437,0.13,-0.46,0.83,-50.50,22.72,2.06,31.87
93447,0.02,-0.51,0.95,-56.67,27.48,-1.53,31.87
93457,-0.08,-0.57,1.03,-58.78,21.62,-4.95,31.92
93467,-0.15,-0.63,1.09,-52.52,10.24,-5.63,31.92
93477,-0.10,-0.67,1.10,-37.97,-0.76,-3.88,31.92
93487,-0.00,-0.69,1.03,-24.21,-4.14,-1.51,31.92
93497,0.09,-0.66,0.98,-11.28,-2.53,-0.44,31.92
93507,0.13,-0.59,0.95,-3.22,0.37,-1.34,31.92
93517,0.20,-0.49,0.88,-0.18,5.53,-5.65,31.92
93527,0.20,-0.44,0.85,-5.10,10.58,-11.37,31.87
93537,0.13,-0.41,0.92,-13.11,13.15,-16.47,31.97
93547,0.02,-0.43,1.02,-13.71,12.52,-16.79,31.97
93557,-0.08,-0.46,1.10,-9.25,8.37,-12.90,31.97
93567,-0.12,-0.45,1.11,-1.56,2.20,-4.89,31.97
93577,-0.09,-0.41,1.08,7.11,-0.81,4.38,31.87
93587,0.00,-0.34,1.03,14.08,-3.31,10.17,31.97
93597,0.09,-0.29,0.96,12.87,-4.17,10.49,31.87
93607,0.13,-0.26,0.94,11.92,-3.92,7.89,31.92
93617,0.17,-0.27,0.90,4.76,-5.66,1.80,31.92
93627,0.15,-0.30,0.93,1.08,-3.44,-1.91,32.01
93637,0.15,-0.32,0.96,1.71,4.03,-1.47,31.92
93647,0.11,-0.32,1.00,4.34,11.51,-1.01,31.92
93657,0.04,-0.34,1.04,6.44,15.53,1.04,31.92
93667,-0.01,-0.33,1.08,11.31,15.76,5.95,31.92
93677,-0.04,-0.31,1.10,15.39,12.67,11.77,31.92
93687,-0.04,-0.29,1.12,15.85,7.18,15.48,31.92
93697,-0.03,-0.29,1.10,14.75,0.87,17.98,31.97
93707,-0.00,-0.29,1.07,12.56,-4.53,18.26,31.97
93717,0.02,-0.31,1.07,11.44,-7.51,17.95,31.97
93727,0.00,-0.34,1.08,12.66,-11.42,18.11,31.87
93737,0.01,-0.33,1.07,15.53,-12.66,20.14,31.87
93747,0.06,-0.34,1.07,21.82,-4.03,23.51,31.78
93757,0.05,-0.35,1.09,24.34,-4.44,23.27,31.87
93767,0.04,-0.36,1.11,26.50,-7.66,20.63,31.87
93777,0.04,-0.35,1.09,25.22,-11.74,17.27,31.92
93787,0.06,-0.36,1.08,23.42,-18.38,16.58,31.82
93797,0.07,-0.38,1.06,22.06,-25.05,19.51,31.92
93807,0.11,-0.37,1.03,22.79,-26.84,22.43,31.92
93817,0.16,-0.37,1.01,24.05,-26.44,24.49,31.92
93827,0.23,-0.36,0.98,25.48,-24.89,24.09,31.97
93837,0.28,-0.33,0.94,23.45,-22.96,21.33,31.92
93847,0.32,-0.31,0.90,17.56,-19.30,17.65,31.92
93857,0.33,-0.31,0.95,10.93,-17.91,12.29,31.87
93867,0.33,-0.28,0.94,5.50,-12.85,5.37,31.87
93877,0.31,-0.28,0.94,-1.19,-9.13,-0.41,31.97
93887,0.30,-0.27,0.95,-5.79,-5.07,-5.92,31.97
93897,0.23,-0.28,1.00,-10.38,-0.53,-10.05,31.78
93907,0.15,-0.29,1.04,-11.08,4.69,-9.42,32.06
93917,0.09,-0.30,1.08,-8.53,12.67,-4.56,31.97
93927,0.05,-0.29,1.13,-3.82,18.63,1.48,31.97
93937,0.03,-0.30,1.15,-0.99,18.27,3.16,31.82
93947,0.05,-0.29,1.09,0.08,14.31,2.44,32.01
93957,0.09,-0.27,1.06,-2.27,4.81,-3.59,31.82
93967,0.13,-0.25,1.01,-7.98,-2.31,-12.82,31.92
93977,0.14,-0.23,1.00,-13.22,-5.44,-22.58,31.92
93987,0.14,-0.21,0.96,-16.43,-0.66,-28.26,31.82
93997,0.09,-0.20,0.97,-17.83,8.81,-27.83,31.87
94007,0.02,-0.22,1.04,-16.24,17.91,-21.56,31.92
94017,-0.05,-0.23,1.07,-14.72,29.27,-11.89,31.87
94027,-0.11,-0.23,1.12,-8.17,25.08,-1.79,31.87
94037,-0.08,-0.25,1.11,-5.01,21.02,2.06,31.87
94047,-0.06,-0.25,1.12,-7.36,7.48,-1.47,31.87
94057,-0.05,-0.24,1.11,-8.11,-5.44,-6.89,31.87
94067,-0.01,-0.25,1.09,-12.14,-14.05,-11.98,31.87
94077,0.06,-0.27,1.10,-13.57,-15.39,-15.36,31.97
94087,0.10,-0.30,1.08,-10.89,-9.40,-16.63,31.87
94097,0.10,-0.30,1.07,-6.06,2.81,-14.81,31.92
94107,0.12,-0.28,1.03,-1.60,14.66,-10.87,31.92
94117,0.05,-0.30,1.06,0.89,23.47,-3.34,31.92
94127,0.03,-0.30,1.09,5.62,28.03,5.22,31.92
94137,0.02,-0.33,1.09,6.95,25.56,9.40,31.92
94147,0.01,-0.33,1.06,5.16,15.94,8.21,31.92
94157,-0.06,-0.32,1.02,2.31,-1.15,6.11,31.92
94167,-0.02,-0.31,1.01,3.19,-14.46,8.14,31.87
94177,0.01,-0.32,0.94,1.86,-23.16,10.81,31.87
94187,0.05,-0.33,0.88,-0.79,-29.16,13.85,31.87
94197,0.13,-0.35,0.82,-1.40,-29.42,13.68,31.87
94207,0.22,-0.34,0.74,-3.86,-25.56,12.00,31.87
94217,0.28,-0.32,0.70,-11.48,-29.28,6.17,31.87
94227,0.34,-0.31,0.70,-21.73,-24.58,-2.32,31.87
94237,0.36,-0.31,0.70,-30.52,-14.63,-8.79,31.87
94247,0.30,-0.32,0.79,-34.18,-0.70,-11.16,31.92
94257,0.22,-0.35,0.91,-32.89,13.02,-10.55,31.82
94267,0.11,-0.38,1.01,-25.98,22.75,-8.87,31.82
94277,0.03,-0.38,1.08,-19.25,24.14,-8.90,31.92
94287,-0.05,-0.37,1.14,-15.47,16.55,-10.96,31.92
94297,-0.09,-0.32,1.13,-12.14,8.49,-10.21,31.78
94307,-0.11,-0.28,1.14,-14.00,1.11,-9.95,31.92
94317,-0.11,-0.26,1.14,-17.68,-5.53,-8.50,31.92
94327,-0.11,-0.25,1.16,-20.84,-10.47,-5.88,31.87
94337,-0.08,-0.29,1.15,-22.32,-15.15,-2.67,31.97
94347,-0.05,-0.31,1.15,-21.01,-16.47,0.56,31.97
94357,-0.01,-0.34,1.14,-17.97,-11.21,5.10,31.97
94367,0.01,-0.37,1.13,-11.98,-10.53,9.85,31.97
94377,0.05,-0.40,1.11,-7.76,-5.08,13.95,31.97
94387,0.06,-0.41,1.11,-4.93,-3.76,15.62,31.97
94397,0.07,-0.42,1.12,-3.10,-3.68,15.91,31.92
94407,0.07,-0.42,1.11,-3.31,-6.43,14.46,31.92
94417,0.07,-0.42,1.11,-2.67,-9.22,12.47,31.82
94427,0.08,-0.44,1.07,-0.05,-9.94,12.69,31.82
94437,0.09,-0.43,1.05,3.15,-9.01,13.48,31.92
94447,0.10,-0.43,1.03,5.02,-8.44,14.09,31.92
94457,0.11,-0.42,1.00,4.32,-8.50,14.40,31.92
94467,0.15,-0.43,0.96,2.12,-7.86,14.02,31.97
94477,0.18,-0.47,0.96,0.85,-5.76,12.60,31.87
94487,0.20,-0.48,0.97,1.34,-2.79,9.16,31.97
94497,0.20,-0.47,0.96,1.68,-2.43,5.59,31.87
94507,0.19,-0.44,0.92,0.14,-1.77,3.66,31.87
94517,0.20,-0.44,0.93,-1.83,-3.25,1.54,31.87
94527,0.21,-0.44,0.92,-4.63,-3.68,-1.25,31.97
94537,0.20,-0.44,0.95,-6.58,-2.66,-5.83,31.92
94547,0.17,-0.43,0.93,-7.48,-2.41,-9.10,31.92
94557,0.15,-0.39,0.92,-9.10,-2.23,-10.61,32.01
94567,0.15,-0.39,0.90,-10.90,-0.44,-10.66,32.01
94577,0.15,-0.38,0.88,-11.68,4.75,-9.39,31.82
94587,0.13,-0.41,0.95,-10.60,8.92,-7.95,31.92
94597,0.08,-0.43,0.99,-9.74,8.03,-9.22,31.97
94607,0.06,-0.41,1.00,-8.66,2.76,-10.73,31.97
94617,0.05,-0.40,0.98,-8.64,-2.69,-11.39,31.87
94627,0.06,-0.39,0.96,-10.08,-5.71,-11.01,31.87
94637,0.08,-0.39,0.95,-10.46,-4.49,-9.02,31.87
94647,0.09,-0.39,0.96,-11.59,-1.63,-5.34,31.97
94657,0.10,-0.41,0.96,-13.21,2.26,-1.45,31.87
94667,0.11,-0.43,0.98,-13.94,5.47,1.18,31.97
94677,0.12,-0.46,1.02,-12.52,6.03,2.44,31.92
94687,0.12,-0.49,1.04,-7.86,5.34,2.21,31.92
94697,0.12,-0.51,1.06,-1.71,1.82,0.73,31.82
94707,0.14,-0.52,1.04,0.90,-2.64,-2.53,31.92
94717,0.15,-0.48,1.03,3.21,-4.60,-5.89,31.92
94727,0.14,-0.46,1.02,2.67,-4.02,-7.08,31.87
94737,0.14,-0.44,0.97,0.93,-4.53,-7.48,31.92
94747,0.14,-0.42,0.98,-1.57,-2.84,-6.55,31.92
94757,0.13,-0.43,0.97,-3.57,-1.18,-5.13,31.97
94767,0.12,-0.43,0.98,-4.87,0.81,-3.08,31.97
94777,0.14,-0.44,0.98,-4.60,1.73,-1.88,31.87
94787,0.14,-0.45,0.98,-4.78,3.34,-2.24,31.97
94797,0.13,-0.46,1.00,-3.80,3.63,-3.07,31.97
94807,0.12,-0.47,1.00,-1.77,2.56,-3.98,31.87
94817,0.12,-0.47,0.99,1.22,3.42,-3.97,31.97
94827,0.13,-0.47,0.98,2.43,5.48,-3.73,31.82
94837,0.13,-0.45,0.98,1.88,5.80,-4.05,31.92
94847,0.12,-0.45,0.99,0.46,5.22,-4.78,31.92
94857,0.11,-0.44,0.99,-1.11,3.21,-5.45,31.92
94867,0.11,-0.42,0.99,-1.56,1.69,-5.98,31.92
94877,0.11,-0.41,0.97,-2.29,1.37,-5.13,31.92
94887,0.12,-0.41,0.97,-1.80,3.16,-3.48,31.92
94897,0.13,-0.41,0.96,-0.99,5.53,-2.15,31.97
94907,0.14,-0.41,0.97,-1.76,6.23,-1.30,31.97
94917,0.15,-0.41,0.97,-2.87,6.50,-0.96,31.78
94927,0.15,-0.42,0.96,-4.41,5.77,-1.91,31.97
94937,0.16,-0.42,0.97,-5.45,5.02,-3.80,31.87
94947,0.15,-0.43,0.98,-5.48,3.98,-5.60,31.97
94957,0.16,-0.43,0.97,-4.06,4.64,-6.63,31.97
94967,0.15,-0.43,0.97,-2.81,5.51,-7.31,31.92
94977,0.14,-0.42,0.96,-2.41,5.19,-7.89,31.92
94987,0.13,-0.41,0.94,-2.64,4.29,-7.82,31.92
94997,0.14,-0.40,0.92,-3.89,4.21,-7.33,31.92
95007,0.14,-0.42,0.93,-6.06,3.37,-6.79,31.82
95017,0.16,-0.43,0.93,-7.05,3.24,-6.95,31.92
95027,0.15,-0.44,0.93,-8.79,3.02,-8.49,31.97
95037,0.15,-0.46,0.95,-9.95,2.14,-9.98,31.87
95047,0.15,-0.45,0.96,-9.15,1.60,-10.93,31.87
95057,0.15,-0.46,0.96,-7.59,2.66,-11.45,31.87
95067,0.14,-0.45,0.96,-5.19,4.79,-11.08,31.97
95077,0.13,-0.45,0.96,-3.95,6.20,-10.79,31.97
95087,0.11,-0.45,0.96,-3.34,4.79,-10.49,31.87
95097,0.11,-0.44,0.96,-4.03,2.17,-11.40,31.87
95107,0.11,-0.44,0.97,-5.25,-0.35,-11.62,31.92
95117,0.10,-0.43,0.96,-6.15,-0.89,-10.90,31.92
95127,0.11,-0.43,0.97,-6.18,-0.63,-9.86,31.92
95137,0.11,-0.44,0.98,-6.17,0.27,-8.49,31.82
95147,0.08,-0.42,0.98,-7.31,0.98,-7.57,31.92
95157,0.10,-0.44,1.01,-4.78,-3.79,-8.00,31.87
95167,0.12,-0.45,0.93,-3.10,-2.96,-5.85,32.01
95177,0.11,-0.46,0.99,-2.93,0.69,-5.89,31.87
95187,0.12,-0.46,0.97,-2.72,0.49,-5.69,31.87
95197,0.11,-0.46,0.98,-3.15,0.72,-6.52,31.87
95207,0.11,-0.46,1.00,-3.62,-1.36,-7.80,31.87
95217,0.11,-0.45,0.99,-3.51,-3.18,-8.08,31.87
95227,0.11,-0.44,0.98,-3.59,-2.12,-7.13,31.87
95237,0.11,-0.45,0.99,-3.47,-1.04,-5.85,32.01
95247,0.11,-0.44,0.98,-3.21,1.36,-3.85,31.82
95257,0.12,-0.45,0.98,-3.27,3.19,-2.17,31.92
95267,0.12,-0.45,0.99,-3.15,3.36,-2.43,31.92
95277,0.13,-0.46,1.01,-2.98,2.40,-3.42,31.92
95287,0.11,-0.46,1.00,-2.64,0.21,-4.76,31.87
95297,0.11,-0.45,0.99,-2.63,-2.23,-5.48,31.92
95307,0.13,-0.44,0.98,-2.96,-1.86,-5.22,31.97
95317,0.13,-0.44,0.97,-3.48,-0.11,-3.94,31.87
95327,0.13,-0.44,0.99,-3.89,1.83,-2.98,31.87
95337,0.14,-0.45,0.98,-3.69,3.98,-2.43,31.97
95347,0.13,-0.45,0.99,-2.35,4.50,-2.73,31.78
95357,0.14,-0.45,0.99,-1.34,3.37,-3.08,31.97
95367,0.14,-0.45,0.98,-0.31,2.93,-2.87,31.87
95377,0.14,-0.45,0.97,0.18,2.75,-2.11,31.92
95387,0.15,-0.45,0.97,-0.61,3.71,-1.65,31.92
95397,0.14,-0.46,0.98,-0.73,2.76,-1.05,31.92
95407,0.14,-0.46,0.98,-1.02,3.08,-1.73,31.92
95417,0.14,-0.46,0.97,-1.10,1.19,-2.64,31.92
95427,0.14,-0.45,0.96,-0.47,-0.55,-2.81,31.82
95437,0.13,-0.44,0.96,-0.18,-1.56,-3.11,32.01
95447,0.14,-0.43,0.94,0.03,-0.85,-2.63,31.87
95457,0.14,-0.43,0.93,-0.08,-0.14,-1.98,31.87
95467,0.15,-0.42,0.92,-0.66,1.97,-1.13,31.97
95477,0.15,-0.43,0.92,-2.12,2.95,-0.89,31.87
95487,0.15,-0.43,0.92,-3.65,2.98,-0.76,31.87
95497,0.13,-0.44,0.94,-5.48,2.02,-1.11,31.87
95507,0.13,-0.44,0.96,-5.22,0.38,-1.40,31.87
95517,0.13,-0.44,0.97,-4.06,-0.63,-0.84,31.92
95527,0.14,-0.44,0.96,-3.22,0.24,-0.26,31.92
95537,0.14,-0.43,0.96,-3.24,0.61,-0.14,31.92
95547,0.13,-0.43,0.96,-4.53,0.24,-0.12,31.82
95557,0.14,-0.43,0.96,-5.08,-0.70,-0.81,31.92
95567,0.14,-0.42,0.95,-5.74,-0.12,-0.63,31.82
95577,0.15,-0.43,0.97,-6.15,1.34,-0.89,31.92
95587,0.14,-0.43,0.96,-5.65,3.10,-0.29,31.87
95597,0.13,-0.42,0.97,-5.53,4.05,0.63,31.97
95607,0.13,-0.43,0.97,-6.02,4.09,1.22,31.87
95617,0.13,-0.42,0.96,-6.84,3.69,1.45,31.87
95627,0.14,-0.41,0.96,-8.00,3.59,1.27,31.97
95637,0.13,-0.41,0.96,-8.47,3.45,1.56,31.97
95647,0.13,-0.41,0.97,-8.81,2.93,2.00,31.97
95657,0.14,-0.42,0.97,-8.67,3.53,2.50,31.82
95667,0.14,-0.42,0.98,-8.24,3.25,2.35,31.92
95677,0.13,-0.43,0.99,-7.94,2.26,1.92,31.92
95687,0.14,-0.43,0.98,-7.97,1.97,1.66,31.92
95697,0.15,-0.44,0.99,-7.88,1.77,1.01,31.92
95707,0.14,-0.45,0.99,-8.03,-0.32,-0.46,32.01
95717,0.14,-0.44,1.00,-7.16,-2.60,-1.33,31.87
95727,0.15,-0.45,1.00,-5.80,-4.03,-1.88,31.92
95737,0.16,-0.45,0.99,-3.89,-2.05,-1.88,31.97
95747,0.16,-0.44,0.98,-3.30,-0.11,-1.15,31.87
95757,0.16,-0.42,0.97,-3.86,1.68,0.18,31.97
95767,0.13,-0.42,0.98,-4.75,1.27,0.78,31.97
95777,0.12,-0.43,0.99,-5.13,-0.52,2.37,31.87
95787,0.13,-0.43,0.97,-7.92,1.05,3.95,31.97
95797,0.13,-0.40,1.00,-10.61,3.53,3.79,31.87
95807,0.14,-0.42,0.98,-7.69,4.55,4.09,32.01
95817,0.14,-0.43,0.98,-6.31,4.37,3.83,31.92
95827,0.15,-0.42,0.98,-4.09,5.02,2.85,31.92
95837,0.15,-0.42,0.99,-2.67,5.80,2.40,31.92
95847,0.14,-0.42,0.98,-2.85,5.83,2.12,31.82
95857,0.14,-0.41,0.97,-3.89,4.58,0.84,31.92
95867,0.15,-0.42,0.97,-4.47,4.17,-0.53,31.82
95877,0.14,-0.42,0.98,-5.36,2.49,-2.05,31.92
95887,0.13,-0.43,0.98,-5.42,1.48,-2.41,31.87
95897,0.13,-0.43,0.98,-4.05,-1.04,-1.21,31.82
95907,0.11,-0.42,0.99,-3.57,-0.76,-0.12,31.97
95917,0.12,-0.42,0.99,-4.08,-1.92,-0.12,31.97
95927,0.13,-0.42,0.98,-3.60,-4.21,-0.34,31.97
95937,0.14,-0.41,0.98,-3.66,-4.20,-0.24,31.97
95947,0.15,-0.39,0.96,-3.30,-2.69,0.96,31.87
95957,0.17,-0.40,0.95,-3.79,1.15,2.73,31.97
95967,0.18,-0.40,0.96,-4.81,3.66,2.47,31.97
95977,0.17,-0.42,0.98,-5.13,4.37,1.40,31.87
95987,0.16,-0.42,0.99,-4.58,3.02,0.17,31.97
95997,0.17,-0.43,0.99,-3.94,2.47,-0.78,31.92
96007,0.16,-0.44,0.99,-3.01,1.89,-1.01,31.82
96017,0.17,-0.43,0.99,-1.62,3.57,-0.56,31.92
96027,0.16,-0.43,0.99,-1.34,4.98,-1.01,31.92
96037,0.15,-0.43,0.97,-1.91,4.67,-0.87,32.01
