Millis,Acce_X,Acce_Y,Acce_Z,Gyro_X,Gyro_Y,Gyro_Z,Temp
61637,-0.15,-0.48,0.95,-33.60,-11.77,-5.34,32.15
61647,-0.18,-0.49,0.99,-38.55,-18.84,-4.61,32.15
61657,-0.22,-0.51,1.05,-43.95,-36.21,-6.78,32.15
61667,-0.25,-0.55,1.13,-52.08,-62.09,-12.52,32.06
61677,-0.26,-0.54,1.14,-60.96,-92.53,-16.44,32.15
61687,-0.23,-0.51,1.08,-64.18,-108.50,-10.34,32.15
61697,-0.13,-0.50,1.03,-61.86,-106.70,3.10,32.20
61707,0.01,-0.53,0.99,-59.97,-87.39,18.03,32.11
61717,0.12,-0.57,0.99,-64.52,-65.76,28.05,32.11
61727,0.26,-0.65,1.03,-65.27,-44.66,29.83,32.20
61737,0.33,-0.70,1.05,-64.31,-28.46,24.76,32.20
61747,0.38,-0.71,1.07,-65.05,-18.72,14.73,32.01
61757,0.35,-0.76,1.12,-58.26,-9.27,-0.44,32.15
61767,0.33,-0.76,1.10,-52.21,-2.90,-11.05,32.11
61777,0.30,-0.74,1.04,-45.42,6.23,-15.71,32.11
61787,0.24,-0.64,1.00,-49.36,15.44,-15.57,32.06
61797,0.20,-0.69,1.01,-49.02,20.11,-14.49,32.06
61807,0.18,-0.70,1.04,-45.45,19.65,-14.09,32.06
61817,0.14,-0.73,1.03,-42.87,20.11,-13.94,32.15
61827,0.10,-0.74,1.03,-40.87,15.65,-12.47,32.15
61837,0.04,-0.76,1.07,-33.94,6.02,-11.97,32.15
61847,0.00,-0.76,1.09,-24.67,-2.20,-10.12,32.15
61857,-0.01,-0.79,1.12,-11.15,-9.39,-6.02,32.15
61867,-0.00,-0.79,1.09,1.98,-13.44,-1.92,32.20
61877,-0.01,-0.77,1.08,9.50,-22.43,0.26,32.11
61887,0.06,-0.75,1.05,12.53,-20.52,2.76,32.11
61897,0.09,-0.73,1.03,16.29,-22.17,3.33,32.11
61907,0.12,-0.73,0.99,17.92,-20.08,2.66,32.11
61917,0.12,-0.72,0.96,15.54,-20.61,-0.12,32.11
61927,0.13,-0.73,0.95,15.11,-23.54,-2.99,32.15
61937,0.15,-0.78,0.95,19.05,-20.37,-6.47,32.20
61947,0.14,-0.81,0.98,21.37,-17.24,-10.11,32.20
61957,0.12,-0.83,1.03,25.98,-17.91,-13.07,32.25
61967,0.12,-0.82,1.03,30.26,-15.47,-14.27,32.06
61977,0.10,-0.80,1.02,32.92,-16.69,-13.31,32.25
61987,0.11,-0.76,1.01,33.54,-16.26,-10.63,32.15
61997,0.13,-0.74,0.96,31.56,-13.53,-8.09,32.15
62007,0.16,-0.74,0.97,29.30,-10.67,-7.50,32.15
62017,0.19,-0.75,0.98,28.79,-6.72,-8.73,32.06
62027,0.20,-0.77,1.00,29.83,-2.90,-11.62,32.15
62037,0.21,-0.79,1.02,34.60,1.34,-12.85,32.11
62047,0.21,-0.80,1.05,41.19,6.14,-12.78,32.11
62057,0.20,-0.79,1.07,45.73,7.95,-13.30,32.11
62067,0.19,-0.76,1.05,46.70,5.33,-14.92,32.11
62077,0.20,-0.75,1.03,44.17,-0.53,-16.78,32.11
62087,0.20,-0.72,0.99,39.45,-6.92,-19.30,32.20
62097,0.18,-0.69,0.95,29.89,-11.19,-20.93,32.15
62107,0.19,-0.63,0.81,14.96,-3.76,-17.69,32.20
62117,0.14,-0.69,0.86,2.34,-21.28,-23.18,32.11
62127,0.14,-0.68,0.86,-7.10,-30.14,-25.76,32.06
62137,0.11,-0.76,0.92,-3.63,-25.79,-26.76,32.06
62147,0.08,-0.83,1.00,14.72,-19.39,-23.88,32.06
62157,0.03,-0.87,1.08,36.89,-12.47,-16.63,32.06
62167,0.02,-0.87,1.13,51.50,-7.56,-9.97,32.06
62177,0.00,-0.82,1.13,60.35,-16.52,-7.62,32.06
62187,0.02,-0.75,1.08,63.65,-30.72,-8.64,32.06
62197,0.07,-0.67,0.97,61.36,-37.28,-8.20,32.15
62207,0.17,-0.66,0.86,58.00,-32.85,-5.48,32.11
62217,0.19,-0.63,0.87,57.45,-16.81,-3.24,32.01
62227,0.21,-0.65,0.90,58.75,-1.79,0.08,32.11
62237,0.20,-0.68,0.96,58.75,4.70,0.78,32.01
62247,0.19,-0.69,1.01,63.37,6.08,-0.78,32.11
62257,0.17,-0.69,1.04,67.86,5.50,-2.26,32.11
62267,0.21,-0.68,1.06,72.08,3.56,-2.69,32.15
62277,0.17,-0.68,1.06,78.75,2.43,-4.64,32.11
62287,0.18,-0.67,1.05,83.53,0.78,-5.77,32.06
62297,0.20,-0.62,0.99,84.17,1.19,-6.98,32.15
62307,0.20,-0.60,0.97,84.24,0.58,-8.14,32.15
62317,0.22,-0.57,0.95,82.98,1.77,-8.75,32.15
62327,0.23,-0.57,0.95,82.29,4.12,-9.73,31.97
62337,0.24,-0.56,0.96,84.05,7.63,-11.76,32.06
62347,0.24,-0.54,0.94,85.97,8.31,-14.20,32.06
62357,0.22,-0.53,0.97,87.54,11.60,-15.33,32.11
62367,0.20,-0.54,0.99,91.13,11.88,-15.77,32.01
62377,0.18,-0.53,0.99,93.28,9.34,-17.10,32.11
62387,0.16,-0.51,0.95,93.31,0.12,-18.93,32.20
62397,0.15,-0.46,0.94,89.59,-12.79,-21.60,32.11
62407,0.11,-0.43,0.92,79.91,-33.48,-26.11,32.11
62417,0.08,-0.41,0.89,66.06,-53.62,-29.56,32.20
62427,0.10,-0.33,0.79,48.72,-66.24,-30.40,32.11
62437,0.14,-0.25,0.70,31.77,-68.72,-31.59,32.15
62447,0.18,-0.21,0.64,11.62,-69.04,-36.34,32.15
62457,0.22,-0.21,0.65,-0.05,-65.60,-43.01,32.15
62467,0.25,-0.26,0.71,11.15,-60.47,-50.75,32.06
62477,0.29,-0.37,0.77,37.37,-44.29,-51.54,32.15
62487,0.31,-0.46,0.80,64.03,-19.71,-48.90,32.06
62497,0.31,-0.52,0.87,83.92,2.67,-49.37,32.06
62507,0.26,-0.55,0.90,97.79,14.98,-53.16,32.06
62517,0.18,-0.47,0.89,100.64,13.50,-58.23,32.01
62527,0.11,-0.36,0.84,102.70,6.40,-62.46,32.01
62537,0.06,-0.21,0.76,92.73,-14.18,-61.40,32.11
62547,0.05,-0.12,0.70,82.43,-31.89,-56.32,32.11
62557,0.13,-0.04,0.66,75.83,-43.48,-49.36,32.01
62567,0.22,0.00,0.62,71.69,-42.63,-42.93,32.06
62577,0.30,-0.02,0.65,68.93,-32.76,-36.98,32.01
62587,0.35,-0.06,0.70,67.16,-15.71,-32.79,32.06
62597,0.31,-0.12,0.84,67.44,3.66,-29.98,32.06
62607,0.23,-0.17,0.92,69.47,9.01,-28.93,32.06
62617,0.19,-0.16,0.91,77.05,8.61,-28.00,31.97
62627,0.13,-0.17,0.98,83.80,-7.97,-30.14,31.97
62637,0.14,-0.06,0.89,88.85,-18.15,-28.79,32.15
62647,0.19,0.03,0.79,87.82,-23.79,-25.62,32.06
62657,0.26,0.08,0.72,82.03,-22.60,-23.01,31.97
62667,0.32,0.11,0.68,73.10,-16.53,-22.34,32.06
62677,0.35,0.09,0.69,65.56,-8.64,-22.15,32.01
62687,0.33,0.04,0.77,66.08,-4.55,-23.89,32.01
62697,0.34,0.02,0.82,73.33,2.69,-26.75,32.01
62707,0.33,0.04,0.84,81.44,5.31,-29.33,32.11
62717,0.32,0.08,0.83,90.41,5.28,-32.03,32.01
62727,0.29,0.12,0.80,93.73,5.56,-33.34,32.11
62737,0.27,0.19,0.77,90.12,4.06,-34.95,32.06
62747,0.26,0.24,0.79,82.95,-2.52,-39.13,32.01
62757,0.23,0.28,0.80,72.53,-10.53,-45.47,32.06
62767,0.25,0.31,0.76,60.26,-7.62,-47.88,31.97
62777,0.26,0.31,0.76,54.11,14.20,-43.57,32.06
62787,0.25,0.27,0.85,54.87,45.77,-36.75,32.06
62797,0.19,0.21,0.96,60.84,75.79,-30.90,32.06
62807,0.08,0.19,1.10,67.65,79.85,-25.42,32.06
62817,0.00,0.23,1.14,71.98,69.83,-21.59,32.06
62827,-0.04,0.30,1.15,74.72,41.62,-17.98,32.15
62837,-0.03,0.36,1.11,76.73,14.11,-12.89,32.01
62847,0.01,0.36,1.09,75.25,-5.76,-4.43,32.01
62857,0.07,0.34,1.09,74.38,-20.09,4.95,32.01
62867,0.16,0.31,1.05,73.44,-28.60,11.92,32.01
62877,0.28,0.28,1.02,72.15,-34.32,15.68,32.01
62887,0.37,0.28,0.97,71.79,-32.53,14.20,32.11
62897,0.46,0.27,0.93,72.93,-26.34,8.11,32.11
62907,0.51,0.26,0.90,71.89,-17.08,-2.00,32.06
62917,0.52,0.30,0.87,67.02,-9.05,-13.82,32.06
62927,0.48,0.31,0.89,63.24,-4.02,-23.40,32.15
62937,0.42,0.33,0.90,60.81,-1.60,-30.27,32.06
62947,0.35,0.36,0.89,58.18,-2.47,-32.18,32.15
62957,0.31,0.39,0.87,57.66,-4.32,-29.11,32.06
62967,0.31,0.40,0.84,59.04,-4.00,-23.33,32.15
62977,0.32,0.41,0.85,60.12,-3.94,-17.47,31.97
62987,0.31,0.41,0.86,59.88,-4.24,-13.37,32.01
62997,0.33,0.40,0.88,58.76,-5.66,-11.11,32.11
63007,0.34,0.40,0.87,57.04,-3.98,-9.66,32.01
63017,0.33,0.36,0.91,58.05,-7.47,-10.93,32.11
63027,0.33,0.33,0.94,59.94,-10.64,-15.33,32.01
63037,0.32,0.34,0.93,62.20,-18.29,-20.11,32.15
63047,0.32,0.37,0.85,65.48,-27.22,-21.25,32.11
63057,0.36,0.41,0.78,64.99,-29.53,-20.00,32.06
63067,0.41,0.44,0.70,63.15,-24.24,-19.40,31.97
63077,0.44,0.45,0.64,60.90,-12.87,-18.85,32.06
63087,0.43,0.45,0.62,55.39,-0.72,-19.63,32.06
63097,0.41,0.45,0.63,47.18,8.66,-22.47,32.06
63107,0.36,0.48,0.65,40.00,15.04,-25.60,31.97
63117,0.28,0.49,0.68,36.81,15.66,-23.98,32.06
63127,0.26,0.51,0.67,39.98,12.27,-18.46,32.01
63137,0.28,0.53,0.66,44.23,8.69,-18.21,32.11
63147,0.31,0.49,0.69,44.23,3.16,-23.85,32.11
63157,0.32,0.50,0.69,43.18,-4.21,-31.39,32.01
63167,0.33,0.51,0.69,44.18,-6.23,-38.00,32.01
63177,0.30,0.53,0.70,51.13,-3.76,-40.81,32.01
63187,0.27,0.58,0.69,56.03,0.35,-39.05,32.11
63197,0.27,0.63,0.66,59.08,4.50,-36.99,32.01
63207,0.25,0.64,0.66,62.76,11.34,-34.38,32.15
63217,0.21,0.65,0.65,66.40,16.24,-30.49,32.06
63227,0.18,0.66,0.64,68.55,20.35,-25.65,32.06
63237,0.17,0.68,0.64,68.53,23.28,-20.11,31.97
63247,0.15,0.70,0.66,67.44,21.44,-17.47,32.06
63257,0.19,0.72,0.63,65.42,18.67,-21.73,32.15
63267,0.19,0.74,0.61,61.34,12.18,-29.79,32.06
63277,0.19,0.75,0.59,56.52,3.92,-35.28,32.06
63287,0.17,0.75,0.56,52.61,1.88,-36.72,32.11
63297,0.16,0.74,0.55,51.51,5.30,-35.57,32.01
63307,0.15,0.76,0.54,50.08,12.92,-33.22,32.01
63317,0.15,0.80,0.51,49.98,22.29,-29.50,32.11
63327,0.14,0.81,0.49,50.12,32.75,-24.24,32.11
63337,0.11,0.87,0.45,49.98,44.46,-16.99,32.01
63347,0.08,0.93,0.41,50.61,56.05,-8.14,32.01
63357,0.04,0.93,0.40,49.04,64.75,-0.17,32.01
63367,0.02,0.90,0.37,42.98,72.89,5.07,32.06
63377,-0.03,0.81,0.44,28.29,74.26,3.08,31.97
63387,-0.08,0.75,0.50,8.40,70.11,-4.26,32.06
63397,-0.12,0.72,0.50,-6.56,62.15,-12.38,32.06
63407,-0.16,0.73,0.51,-19.15,54.02,-16.70,31.97
63417,-0.18,0.79,0.48,-27.97,57.10,-14.63,31.97
63427,-0.23,0.82,0.52,-27.95,66.37,-0.72,32.06
63437,-0.22,0.83,0.60,-18.85,76.41,20.31,31.97
63447,-0.22,0.84,0.70,-0.82,75.68,39.44,32.01
63457,-0.15,0.78,0.71,22.85,58.06,55.19,32.11
63467,-0.02,0.75,0.68,37.01,46.78,64.81,32.01
63477,0.09,0.73,0.63,48.43,39.04,64.32,32.01
63487,0.17,0.70,0.60,54.79,39.79,57.15,32.01
63497,0.21,0.69,0.55,53.59,43.85,46.41,32.01
63507,0.20,0.71,0.52,49.97,42.09,33.19,32.06
63517,0.15,0.75,0.50,45.80,35.24,22.35,32.01
63527,0.12,0.79,0.48,40.47,28.23,15.22,32.06
63537,0.11,0.85,0.48,35.11,20.40,10.35,32.06
63547,0.10,0.88,0.46,29.83,11.36,8.66,31.97
63557,0.11,0.90,0.43,25.71,6.03,11.65,31.97
63567,0.13,0.90,0.41,25.13,7.91,18.53,31.97
63577,0.18,0.88,0.38,27.85,16.69,24.84,32.06
63587,0.21,0.89,0.38,30.93,27.15,29.40,32.06
63597,0.22,0.91,0.39,32.40,31.92,30.40,32.06
63607,0.21,0.94,0.40,31.42,27.79,25.94,32.01
63617,0.19,1.01,0.38,25.86,9.91,17.73,32.01
63627,0.21,1.04,0.33,11.11,-14.78,6.49,32.11
63637,0.28,1.09,0.26,-7.69,-34.92,-1.56,32.11
63647,0.41,1.10,0.12,-24.00,-32.15,1.30,31.92
63657,0.53,1.12,0.03,-28.82,1.39,15.60,32.01
63667,0.58,1.11,0.03,-24.18,51.28,36.60,32.01
63677,0.57,1.08,0.08,-19.18,99.50,54.92,32.06
63687,0.49,1.01,0.19,-13.22,114.24,61.34,32.11
63697,0.44,0.96,0.29,-7.83,102.70,52.60,31.97
63707,0.38,0.92,0.37,-5.66,71.50,31.89,32.06
63717,0.35,0.90,0.39,-6.26,38.26,6.96,32.15
63727,0.21,0.88,0.50,-5.76,15.42,-20.32,32.06
63737,0.33,0.88,0.40,-7.62,0.60,-35.94,32.06
63747,0.27,0.84,0.40,-2.08,-1.07,-43.50,32.06
63757,0.17,0.83,0.47,0.63,6.35,-47.74,31.97
63767,0.11,0.84,0.48,11.02,18.85,-46.61,31.97
63777,0.04,0.85,0.48,20.40,30.64,-41.86,32.06
63787,-0.02,0.86,0.50,27.98,37.71,-35.54,32.01
63797,-0.07,0.87,0.49,34.31,41.27,-31.79,31.92
63807,-0.12,0.88,0.52,36.18,38.09,-30.49,32.11
63817,-0.14,0.88,0.56,38.06,26.56,-30.89,32.11
63827,-0.16,0.89,0.53,42.24,13.07,-30.31,32.11
63837,-0.15,0.88,0.53,42.70,2.81,-28.44,32.11
63847,-0.11,0.87,0.52,43.01,-1.91,-26.41,32.06
63857,-0.09,0.85,0.54,45.95,1.18,-23.05,32.11
63867,-0.05,0.84,0.52,53.22,7.05,-18.58,32.11
63877,-0.01,0.85,0.50,59.25,16.02,-14.56,32.06
63887,0.03,0.85,0.46,60.64,23.25,-12.44,32.06
63897,0.03,0.84,0.47,57.91,21.77,-14.72,32.06
63907,0.04,0.86,0.41,50.18,10.00,-18.76,32.06
63917,0.01,0.85,0.47,38.87,-4.69,-28.38,31.97
63927,0.06,0.80,0.48,28.06,-16.44,-37.71,31.97
63937,0.01,0.78,0.45,14.78,-35.34,-46.23,32.06
63947,0.14,0.88,0.37,6.66,-37.79,-52.63,32.15
63957,0.15,1.01,0.23,6.32,-35.30,-55.65,31.97
63967,0.22,1.11,0.13,6.89,-5.34,-52.52,32.06
63977,0.20,1.16,0.07,10.02,35.45,-39.80,32.11
63987,0.09,1.19,0.15,8.95,68.98,-27.11,32.01
63997,-0.05,1.17,0.23,10.79,80.66,-12.27,32.11
64007,-0.15,1.15,0.31,13.80,81.91,-2.66,32.11
64017,-0.23,1.13,0.35,15.97,66.44,-1.57,32.11
64027,-0.25,1.11,0.36,19.40,37.69,-6.73,32.11
64037,-0.26,1.13,0.32,22.90,10.35,-11.42,32.11
64047,-0.22,1.14,0.25,21.85,-3.30,-10.79,32.11
64057,-0.20,1.14,0.23,17.04,-2.75,-4.00,32.06
64067,-0.21,1.14,0.23,13.07,7.40,8.37,32.06
64077,-0.18,1.12,0.26,10.24,22.40,20.87,32.15
64087,-0.14,1.09,0.27,8.24,35.25,29.88,32.15
64097,-0.16,1.05,0.36,10.27,24.18,31.11,32.15
64107,-0.11,1.04,0.30,13.07,10.84,28.05,32.15
64117,-0.07,1.04,0.25,14.64,-0.05,24.89,32.06
64127,-0.01,1.04,0.25,12.82,-4.70,25.21,31.97
64137,0.05,1.02,0.21,7.02,-2.52,25.37,32.11
64147,0.11,1.01,0.21,-1.22,6.18,23.94,32.11
64157,0.14,0.99,0.23,-7.11,11.47,20.46,32.01
64167,0.14,0.97,0.24,-9.76,12.55,14.67,32.11
64177,0.17,0.97,0.15,-7.92,19.76,13.34,32.11
64187,0.09,0.95,0.22,-10.73,13.40,3.31,32.06
64197,0.06,0.97,0.24,-10.60,11.95,-1.80,32.01
64207,0.01,0.99,0.24,-9.92,7.89,-5.85,32.01
64217,-0.03,1.02,0.24,-8.85,3.57,-8.49,32.06
64227,-0.06,1.05,0.20,-9.80,-0.81,-9.15,32.15
64237,-0.07,1.08,0.19,-11.77,-5.02,-8.76,31.97
64247,-0.09,1.09,0.18,-13.94,-9.27,-8.40,32.15
64257,-0.09,1.08,0.16,-16.69,-13.31,-7.86,32.06
64267,-0.08,1.10,0.15,-19.53,-14.64,-6.46,32.06
64277,-0.10,1.10,0.14,-22.61,-13.10,-4.46,32.06
64287,-0.10,1.12,0.15,-26.78,-12.15,-0.72,32.06
64297,-0.11,1.13,0.16,-31.80,-11.51,5.21,32.11
64307,-0.11,1.12,0.18,-34.70,-12.79,11.39,32.01
64317,-0.07,1.09,0.21,-37.27,-15.59,16.53,32.11
64327,-0.04,1.07,0.24,-38.78,-17.60,18.56,32.01
64337,-0.02,1.03,0.26,-38.89,-18.50,18.26,32.11
64347,0.01,1.01,0.27,-38.89,-18.18,17.74,32.11
64357,0.01,0.99,0.32,-37.01,-19.45,16.70,32.06
64367,0.02,0.96,0.36,-31.98,-17.33,15.18,32.06
64377,-0.00,0.95,0.39,-26.78,-10.98,17.40,32.06
64387,-0.04,0.94,0.43,-19.73,-7.39,24.02,32.06
64397,-0.02,0.91,0.47,-13.33,-0.58,29.30,32.06
64407,0.01,0.90,0.52,-6.53,4.56,31.66,31.97
64417,0.04,0.94,0.50,-1.63,0.17,28.20,32.15
64427,0.07,0.97,0.41,-1.56,-6.70,22.11,32.06
64437,0.11,1.01,0.34,-4.95,-7.76,16.78,32.01
64447,0.13,1.04,0.31,-13.83,-6.29,7.82,32.11
64457,0.12,1.04,0.28,-23.22,-5.73,-3.42,32.01
64467,0.08,1.07,0.26,-29.40,-7.37,-11.31,32.01
64477,0.04,1.11,0.23,-32.87,-14.34,-10.90,32.11
64487,0.05,1.10,0.22,-34.78,-19.59,-6.64,31.97
64497,0.09,1.09,0.20,-36.12,-17.02,-1.11,32.11
64507,0.12,1.05,0.21,-39.02,-9.68,4.64,32.11
64517,0.15,1.01,0.22,-42.11,-3.28,5.95,32.06
64527,0.16,0.98,0.23,-45.65,-1.01,1.15,32.06
64537,0.15,0.94,0.23,-51.59,-5.88,-9.04,32.06
64547,0.12,0.95,0.25,-56.73,-17.98,-20.63,32.06
64557,0.10,0.95,0.25,-62.35,-34.89,-30.26,32.06
64567,0.11,0.97,0.24,-71.34,-46.53,-36.87,32.06
64577,0.11,0.98,0.23,-80.73,-54.60,-39.04,31.97
64587,0.14,0.98,0.26,-87.73,-52.70,-37.08,32.15
64597,0.14,0.94,0.28,-91.69,-45.34,-32.96,32.11
64607,0.12,0.91,0.31,-94.43,-37.21,-28.63,32.01
64617,0.10,0.88,0.35,-93.48,-29.97,-23.83,32.01
64627,0.08,0.85,0.38,-91.07,-24.87,-20.02,32.11
64637,0.07,0.86,0.38,-89.79,-24.08,-18.95,32.11
64647,0.07,0.86,0.36,-90.29,-30.05,-20.89,32.01
64657,0.09,0.86,0.34,-94.31,-37.65,-25.18,32.06
64667,0.09,0.87,0.32,-101.45,-41.97,-30.52,32.11
64677,0.08,0.84,0.35,-107.97,-45.08,-32.23,31.97
64687,0.05,0.80,0.42,-110.95,-42.20,-28.79,32.06
64697,0.04,0.75,0.47,-110.27,-35.92,-22.64,32.06
64707,0.03,0.72,0.53,-106.26,-29.57,-15.39,31.97
64717,0.01,0.70,0.55,-100.52,-24.37,-10.08,32.15
64727,0.01,0.68,0.57,-95.37,-25.05,-7.08,32.06
64737,0.01,0.65,0.58,-92.87,-25.07,-6.09,32.06
64747,-0.02,0.64,0.61,-93.77,-29.76,-6.11,32.06
64757,-0.03,0.65,0.61,-94.17,-35.37,-5.13,32.06
64767,-0.03,0.64,0.62,-95.28,-40.61,-3.42,32.11
64777,-0.03,0.63,0.65,-96.27,-43.56,-0.15,32.11
64787,-0.01,0.59,0.67,-94.11,-39.19,6.18,32.11
64797,0.00,0.55,0.68,-87.89,-22.44,19.40,32.11
64807,-0.00,0.50,0.72,-77.04,3.11,39.33,32.01
64817,-0.01,0.44,0.77,-63.53,38.00,58.66,32.01
64827,-0.03,0.36,0.90,-50.44,70.03,70.32,32.06
64837,-0.10,0.27,1.04,-41.27,78.52,68.21,32.11
64847,-0.15,0.23,1.10,-35.44,67.28,54.67,31.97
64857,-0.16,0.27,1.08,-28.53,40.17,34.56,32.15
64867,-0.15,0.48,0.91,-16.50,14.98,22.50,32.06
64877,-0.15,0.60,0.79,-15.13,-6.31,17.31,32.06
64887,-0.15,0.67,0.69,-26.05,-22.27,22.81,32.06
64897,-0.08,0.72,0.60,-31.85,-26.40,39.07,32.15
64907,0.02,0.69,0.54,-36.99,-12.37,60.61,32.06
64917,0.13,0.60,0.57,-42.53,1.86,77.74,32.15
64927,0.26,0.49,0.66,-45.69,7.59,81.94,32.11
64937,0.34,0.35,0.72,-48.79,4.23,71.74,32.11
64947,0.32,0.29,0.83,-44.81,-8.03,55.91,32.11
64957,0.38,0.30,0.76,-52.87,-31.21,29.77,32.01
64967,0.40,0.29,0.77,-51.44,-36.87,13.94,32.11
64977,0.44,0.34,0.71,-49.76,-25.69,13.45,32.11
64987,0.46,0.38,0.66,-50.76,-2.81,18.03,32.11
64997,0.42,0.38,0.68,-53.85,18.02,22.18,32.06
65007,0.37,0.39,0.68,-60.53,26.26,21.45,32.01
65017,0.29,0.38,0.74,-70.27,21.16,16.05,32.06
65027,0.25,0.35,0.74,-77.22,15.48,11.39,32.06
65037,0.21,0.37,0.76,-81.56,-0.06,6.12,32.15
65047,0.23,0.33,0.77,-80.98,-4.31,4.24,32.06
65057,0.25,0.35,0.76,-78.89,6.11,6.31,32.06
65067,0.25,0.31,0.76,-80.70,15.74,8.52,32.06
65077,0.24,0.27,0.82,-84.35,22.05,8.41,32.06
65087,0.24,0.25,0.85,-87.56,25.37,7.62,32.06
65097,0.22,0.22,0.87,-89.56,22.29,4.05,32.06
65107,0.24,0.19,0.89,-91.63,11.77,-2.11,32.11
65117,0.24,0.19,0.89,-93.63,0.17,-11.48,32.11
65127,0.25,0.20,0.90,-92.05,-6.90,-18.78,32.11
65137,0.23,0.21,0.90,-87.66,-9.16,-22.05,32.11
65147,0.22,0.23,0.89,-81.86,-2.89,-21.05,32.01
65157,0.19,0.25,0.86,-76.58,6.90,-16.14,32.11
65167,0.18,0.28,0.81,-73.54,15.16,-10.23,32.06
65177,0.19,0.32,0.78,-76.82,17.53,-7.13,32.11
65187,0.16,0.32,0.75,-85.95,11.34,-6.73,32.06
65197,0.15,0.25,0.82,-95.27,3.40,-6.72,32.06
65207,0.17,0.15,0.90,-101.24,-0.67,-8.87,32.06
65217,0.15,0.06,0.97,-101.02,-7.73,-12.87,31.97
65227,0.18,-0.03,1.05,-95.45,6.02,-16.24,32.06
65237,0.13,-0.05,1.07,-86.35,2.27,-20.27,32.06
65247,0.10,-0.03,1.03,-76.47,3.98,-21.71,32.06
65257,0.07,0.07,0.94,-67.68,8.78,-20.29,32.06
65267,0.06,0.17,0.80,-66.89,23.08,-11.62,31.97
65277,-0.02,0.22,0.85,-76.43,18.26,-5.56,32.01
65287,-0.06,0.18,0.87,-85.68,19.50,0.18,32.01
65297,-0.08,0.11,0.92,-91.69,16.32,4.18,32.01
65307,-0.07,0.02,1.00,-93.73,3.25,4.17,32.11
65317,-0.03,-0.07,1.03,-92.69,-8.92,2.46,32.11
65327,0.01,-0.10,1.04,-89.97,-12.98,5.30,32.11
65337,0.07,-0.10,1.03,-86.63,-13.40,7.51,32.06
65347,0.11,-0.09,1.00,-83.62,-3.25,7.51,32.11
65357,0.11,-0.03,0.97,-83.28,11.56,11.36,32.06
65367,0.06,-0.02,0.99,-86.73,18.76,16.69,32.06
65377,0.01,-0.02,1.00,-90.69,20.90,21.02,32.06
65387,-0.02,-0.02,1.02,-92.87,15.53,25.71,32.06
65397,-0.05,-0.07,1.14,-92.21,9.40,27.95,32.06
65407,0.05,-0.05,1.02,-85.34,-2.90,34.00,31.97
65417,0.11,-0.10,1.08,-77.24,-8.06,31.31,32.06
65427,0.11,-0.17,1.07,-69.50,-11.51,26.93,32.06
65437,0.13,-0.20,1.06,-65.10,-3.60,25.34,32.11
65447,0.11,-0.20,1.05,-65.21,4.81,25.13,32.11
65457,0.06,-0.23,1.07,-74.72,12.20,22.17,32.01
65467,0.01,-0.24,1.11,-85.56,11.94,20.24,31.92
65477,-0.04,-0.25,1.12,-90.72,6.87,23.10,32.01
65487,-0.02,-0.29,1.13,-90.81,-1.19,26.60,32.11
65497,0.04,-0.33,1.10,-88.49,-7.11,28.05,32.01
65507,0.11,-0.35,1.04,-83.31,-11.59,28.03,32.06
65517,0.19,-0.41,1.05,-75.68,-15.50,26.85,32.06
65527,0.26,-0.44,1.05,-71.28,-7.66,22.81,32.06
65537,0.27,-0.47,1.09,-72.34,2.82,17.37,32.15
65547,0.21,-0.48,1.16,-73.45,13.63,13.62,32.06
65557,0.15,-0.50,1.22,-71.45,18.98,11.39,32.06
65567,0.09,-0.50,1.22,-70.76,17.45,9.71,31.97
65577,0.06,-0.44,1.17,-67.51,11.50,7.51,31.97
65587,0.04,-0.36,1.09,-62.49,2.08,7.98,31.97
65597,0.05,-0.33,1.02,-61.02,-7.68,9.74,32.20
65607,0.11,-0.36,0.96,-64.90,-14.44,8.73,32.01
65617,0.19,-0.42,0.94,-73.92,-18.40,3.15,32.01
65627,0.24,-0.47,0.94,-84.00,-15.42,-4.35,32.01
65637,0.26,-0.53,1.00,-93.27,-2.31,-10.73,31.97
65647,0.24,-0.59,1.11,-94.23,7.50,-15.16,32.01
65657,0.23,-0.61,1.18,-81.54,20.12,-14.87,32.01
65667,0.21,-0.52,1.15,-62.43,28.98,-13.79,32.06
65677,0.20,-0.49,1.09,-47.05,29.53,-9.89,32.06
65687,0.20,-0.45,1.04,-38.93,28.46,-6.75,32.06
65697,0.17,-0.41,1.06,-40.63,29.51,-7.66,31.97
65707,0.11,-0.40,1.07,-46.00,29.63,-8.67,32.06
65717,0.05,-0.43,1.12,-48.87,27.07,-8.02,32.15
65727,0.02,-0.41,1.12,-48.35,17.88,-2.64,32.06
65737,0.03,-0.47,1.17,-40.40,11.63,-5.80,32.06
65747,0.02,-0.48,1.14,-33.01,7.80,-4.58,32.01
65757,0.02,-0.46,1.10,-31.37,7.40,-3.07,32.01
65767,0.00,-0.43,1.08,-33.42,8.53,0.73,32.01
65777,0.02,-0.42,1.06,-35.68,8.35,6.09,32.11
65787,0.05,-0.40,1.00,-38.89,8.85,8.09,32.01
65797,0.06,-0.39,0.96,-42.81,1.10,9.18,32.11
65807,0.09,-0.42,0.90,-46.23,-3.22,12.12,32.15
65817,0.11,-0.43,0.88,-48.75,-5.13,15.44,32.11
65827,0.13,-0.46,0.90,-50.98,1.08,16.40,32.06
65837,0.11,-0.49,0.94,-53.50,11.24,17.22,32.06
65847,0.05,-0.53,0.96,-54.84,17.33,17.66,32.06
65857,0.04,-0.57,0.97,-55.85,19.16,19.54,32.06
65867,0.04,-0.59,0.94,-56.61,18.18,18.99,32.06
65877,0.05,-0.59,0.90,-57.86,20.14,16.52,32.06
65887,0.02,-0.59,0.88,-58.50,20.73,12.79,31.97
65897,-0.04,-0.59,0.87,-60.15,23.66,11.71,32.15
65907,-0.09,-0.58,0.87,-64.08,25.21,16.55,32.11
65917,-0.08,-0.61,0.85,-63.95,26.09,24.27,32.11
65927,-0.02,-0.65,0.89,-59.79,28.24,29.37,32.11
65937,0.05,-0.70,0.89,-58.99,32.66,28.29,32.01
65947,0.05,-0.71,0.96,-63.44,35.11,24.56,32.11
65957,0.02,-0.73,1.11,-67.79,31.11,21.04,32.11
65967,-0.04,-0.77,1.22,-66.99,24.60,22.08,32.01
65977,-0.05,-0.79,1.25,-59.31,18.66,23.98,32.06
65987,0.00,-0.75,1.26,-49.48,13.50,24.15,31.97
65997,0.03,-0.72,1.22,-42.93,9.86,24.49,32.06
66007,0.06,-0.67,1.19,-41.76,10.69,23.30,32.06
66017,0.07,-0.67,1.24,-43.56,7.05,20.15,32.15
66027,0.10,-0.69,1.29,-44.08,1.22,15.34,32.06
66037,0.16,-0.79,1.37,-40.03,3.34,7.79,32.06
66047,0.16,-0.85,1.38,-31.71,4.12,-1.16,32.15
66057,0.08,-0.80,1.37,-21.01,2.32,-7.80,31.92
66067,-0.01,-0.69,1.34,-11.25,-0.23,-8.53,32.11
66077,-0.03,-0.61,1.27,-2.08,-1.53,-3.51,32.01
66087,-0.01,-0.58,1.21,4.18,-1.71,-1.57,32.11
66097,0.02,-0.57,1.18,6.78,-4.43,-7.07,32.11
66107,0.02,-0.62,1.13,8.66,-4.55,-17.47,32.06
66117,-0.05,-0.63,1.09,8.56,-3.15,-25.50,32.11
66127,-0.15,-0.57,1.05,6.96,-0.31,-25.74,32.11
66137,-0.22,-0.56,1.02,7.42,3.28,-18.50,32.06
66147,-0.22,-0.56,1.01,7.89,2.85,-10.08,32.06
66157,-0.18,-0.56,0.99,6.44,-1.62,-3.16,32.06
66167,-0.09,-0.57,0.96,4.15,-5.66,0.69,31.97
66177,-0.03,-0.59,0.93,3.33,-8.24,1.42,32.06
66187,0.03,-0.57,0.89,1.91,-5.30,-0.55,32.06
66197,0.05,-0.60,0.92,-1.15,-1.19,-5.15,32.06
66207,0.01,-0.63,0.95,-0.20,-1.37,-9.71,32.06
66217,-0.05,-0.66,0.96,1.27,-2.44,-12.89,32.01
66227,-0.11,-0.63,0.95,5.44,-7.66,-13.08,32.01
66237,-0.13,-0.55,0.89,7.01,-9.11,-7.34,32.01
66247,-0.12,-0.53,0.88,6.14,-8.67,0.50,32.11
66257,-0.08,-0.54,0.88,5.21,-6.93,6.44,32.01
66267,-0.02,-0.58,0.92,4.02,-6.70,8.90,32.11
66277,0.02,-0.60,0.94,2.35,-8.78,6.95,32.06
66287,0.06,-0.61,0.95,3.36,-12.35,3.94,32.01
66297,0.08,-0.64,0.95,4.84,-14.81,0.20,32.06
66307,0.11,-0.65,0.95,8.47,-15.91,-3.31,32.06
66317,0.12,-0.63,0.90,12.21,-12.27,-6.76,32.06
66327,0.09,-0.61,0.86,13.51,-8.72,-9.02,32.06
66337,0.06,-0.59,0.85,14.40,-4.41,-9.57,32.06
66347,-0.00,-0.58,0.85,12.67,-0.73,-8.18,32.06
66357,-0.06,-0.56,0.86,10.24,-2.00,-6.00,31.97
66367,-0.10,-0.54,0.85,7.04,-3.95,-1.92,32.11
66377,-0.12,-0.55,0.85,7.30,-7.62,4.63,32.20
66387,-0.08,-0.54,0.86,5.33,-7.50,9.74,32.01
66397,-0.04,-0.53,0.87,1.33,-9.82,12.90,32.01
66407,0.02,-0.54,0.88,-3.10,-10.76,13.89,32.11
66417,0.09,-0.57,0.90,-5.83,-10.53,12.38,32.01
66427,0.13,-0.62,0.90,-1.39,-8.93,8.75,32.11
66437,0.13,-0.65,0.91,4.32,-3.80,3.05,31.97
66447,0.10,-0.60,0.88,6.26,0.60,-1.39,32.06
66457,0.07,-0.52,0.84,4.60,4.02,-2.12,32.15
66467,0.04,-0.49,0.85,-1.40,5.50,-1.33,31.97
66477,0.01,-0.49,0.89,-6.55,3.10,-0.14,32.06
66487,0.00,-0.54,0.94,-6.61,0.81,0.96,32.06
66497,0.01,-0.58,0.98,-1.85,-1.08,2.31,32.06
66507,0.03,-0.57,0.97,2.06,-2.05,2.90,32.06
66517,0.05,-0.55,0.94,3.10,-2.75,2.67,32.15
66527,0.06,-0.54,0.91,2.49,-5.21,3.40,32.01
66537,0.07,-0.55,0.92,0.49,-8.29,3.66,32.01
66547,0.09,-0.56,0.92,0.53,-3.59,4.84,32.11
66557,0.11,-0.58,0.94,1.68,-1.16,3.24,32.01
66567,0.12,-0.59,0.92,3.02,1.74,0.70,32.01
66577,0.11,-0.59,0.93,5.68,2.49,-1.01,32.01
66587,0.08,-0.59,0.93,8.70,0.09,-1.04,32.01
66597,0.07,-0.58,0.92,9.36,1.08,-1.71,32.11
66607,0.03,-0.53,0.90,8.50,-1.19,-2.21,32.01
66617,-0.01,-0.50,0.89,7.08,-4.50,-0.87,32.06
66627,-0.01,-0.49,0.91,5.91,-8.49,1.21,31.97
