Millis,Acce_X,Acce_Y,Acce_Z,Gyro_X,Gyro_Y,Gyro_Z,Temp
195757,0.01,-0.26,0.90,-0.23,-10.08,14.53,30.84
195767,0.02,-0.28,0.92,-6.82,-9.10,14.35,30.84
195777,0.01,-0.31,0.95,-11.62,-10.18,14.31,30.79
195787,-0.01,-0.32,0.99,-12.46,-12.61,14.27,30.79
195797,0.01,-0.33,0.98,-11.60,-12.89,15.63,30.79
195807,0.03,-0.34,0.98,-11.16,-12.34,17.34,30.79
195817,0.03,-0.33,0.97,-11.08,-11.13,18.56,30.79
195827,0.04,-0.32,0.98,-12.40,-9.73,19.27,30.79
195837,0.05,-0.32,0.99,-13.77,-11.66,16.63,30.79
195847,0.05,-0.30,1.00,-14.95,-16.40,12.11,30.74
195857,0.06,-0.28,1.00,-16.23,-23.30,9.92,30.84
195867,0.07,-0.25,1.01,-16.92,-28.58,7.15,30.74
195877,0.09,-0.22,1.02,-15.98,-29.69,4.27,30.74
195887,0.11,-0.17,1.03,-14.40,-28.17,1.05,30.93
195897,0.11,-0.14,1.04,-12.35,-26.27,-0.66,30.84
195907,0.13,-0.08,1.03,-9.88,-25.07,1.16,30.69
195917,0.15,-0.06,1.05,-7.89,-22.37,4.50,30.88
195927,0.19,-0.03,1.06,-6.89,-18.08,4.98,30.79
195937,0.23,-0.01,1.05,-7.01,-12.79,5.98,30.79
195947,0.28,-0.01,1.06,-8.37,-7.10,7.42,30.79
195957,0.31,-0.02,1.10,-10.09,-1.73,7.22,30.79
195967,0.34,-0.06,1.15,-10.67,2.61,3.37,30.79
195977,0.34,-0.07,1.20,-10.32,5.13,-2.85,30.84
195987,0.34,-0.09,1.23,-8.43,4.92,-11.15,30.84
195997,0.35,-0.10,1.21,-6.15,4.81,-18.21,30.84
196007,0.38,-0.10,1.22,-4.31,7.39,-26.05,30.84
196017,0.38,-0.11,1.22,-3.73,12.87,-36.02,30.74
196027,0.36,-0.11,1.22,-2.96,20.50,-45.15,30.74
196037,0.29,-0.12,1.23,-0.27,25.39,-52.43,30.65
196047,0.23,-0.11,1.23,3.63,29.27,-56.49,30.74
196057,0.15,-0.09,1.23,6.64,31.51,-59.92,30.79
196067,0.09,-0.08,1.22,9.24,32.72,-62.34,30.88
196077,0.02,-0.06,1.22,11.37,33.02,-62.84,30.79
196087,-0.03,-0.05,1.19,11.39,32.60,-57.97,30.79
196097,-0.04,-0.08,1.22,11.54,31.86,-53.71,30.79
196107,-0.04,-0.10,1.23,13.82,29.68,-55.30,30.93
196117,-0.03,-0.10,1.22,18.58,21.02,-62.29,30.79
196127,-0.00,-0.09,1.15,23.63,15.16,-71.47,30.93
196137,-0.00,-0.03,1.04,27.53,2.38,-81.28,30.74
196147,0.03,0.03,0.93,30.09,-0.29,-90.89,30.84
196157,0.04,0.11,0.79,23.63,-0.73,-94.98,30.84
196167,0.01,0.19,0.77,10.49,-1.19,-93.83,30.74
196177,0.02,0.21,0.79,-1.51,3.02,-80.64,30.74
196187,0.10,0.12,0.89,-9.22,8.78,-58.87,30.74
196197,0.19,0.02,0.96,-13.69,11.45,-41.19,30.79
196207,0.27,-0.11,1.03,-14.87,11.77,-31.89,30.79
196217,0.35,-0.23,1.11,-10.99,11.16,-32.24,30.69
196227,0.37,-0.32,1.18,-8.43,-3.22,-41.54,30.79
196237,0.40,-0.37,1.22,-9.33,-28.14,-56.41,30.84
196247,0.43,-0.39,1.17,-11.27,-40.89,-67.88,30.79
196257,0.47,-0.41,1.13,-6.50,-49.05,-66.85,30.79
196267,0.51,-0.38,1.09,-0.41,-24.26,-56.03,30.84
196277,0.44,-0.37,1.09,9.66,10.96,-41.44,30.84
196287,0.34,-0.39,1.12,16.69,42.23,-26.43,30.74
196297,0.23,-0.39,1.23,21.27,39.68,-16.29,30.84
196307,0.13,-0.38,1.23,21.04,26.20,-12.98,30.74
196317,0.18,-0.42,1.22,20.70,1.24,-11.68,30.74
196327,0.31,-0.45,1.16,23.13,-15.62,-18.73,30.74
196337,0.45,-0.43,1.06,22.05,-12.81,-29.80,30.79
196347,0.52,-0.43,0.98,17.08,3.08,-38.44,30.79
196357,0.50,-0.38,0.93,11.25,32.61,-39.71,30.69
196367,0.34,-0.35,0.97,7.19,55.51,-32.89,30.79
196377,0.13,-0.31,1.03,4.70,70.34,-15.79,30.79
196387,0.02,-0.29,1.10,0.73,61.59,0.93,30.79
196397,0.07,-0.25,1.06,-3.44,35.82,9.45,30.69
196407,0.21,-0.25,0.93,-12.55,-7.80,4.37,30.74
196417,0.37,-0.21,0.71,-26.76,-26.21,-2.84,30.84
196427,0.46,-0.18,0.57,-44.63,-19.42,-0.93,30.84
196437,0.40,-0.22,0.62,-58.92,20.84,10.12,30.84
196447,0.23,-0.35,0.82,-61.07,65.28,23.57,30.84
196457,0.08,-0.49,1.01,-49.45,87.94,34.87,30.84
196467,-0.01,-0.58,1.12,-31.63,80.37,35.04,30.79
196477,0.08,-0.52,0.98,-23.48,66.90,24.50,30.79
196487,-0.04,-0.53,0.94,-12.90,49.82,16.73,30.69
196497,-0.06,-0.48,0.85,-13.31,30.73,15.42,30.69
196507,-0.06,-0.49,0.82,-21.73,14.26,16.40,30.79
196517,-0.02,-0.55,0.76,-27.15,18.14,23.66,30.79
196527,0.03,-0.61,0.77,-32.78,34.21,32.66,30.79
196537,0.07,-0.68,0.82,-31.95,57.89,36.24,30.74
196547,-0.01,-0.76,0.96,-25.50,74.20,38.29,30.84
196557,-0.08,-0.84,1.10,-11.54,74.82,34.58,30.74
196567,-0.08,-0.88,1.12,1.05,64.53,26.23,30.74
196577,-0.05,-0.92,1.06,9.50,51.10,14.95,30.74
196587,-0.04,-0.90,0.98,11.73,46.49,2.92,30.84
196597,-0.06,-0.84,0.95,17.45,51.92,-3.73,30.74
196607,-0.12,-0.74,0.90,19.91,66.43,-2.15,30.79
196617,-0.23,-0.67,0.92,21.11,69.01,2.11,30.79
196627,-0.30,-0.63,0.92,20.82,58.95,4.98,30.79
196637,-0.38,-0.59,0.94,18.67,28.70,4.63,30.88
196647,-0.37,-0.59,0.95,15.76,3.97,4.24,30.79
196657,-0.32,-0.60,0.95,18.44,-8.99,10.43,30.79
196667,-0.25,-0.60,0.93,24.32,-9.42,16.29,30.84
196677,-0.22,-0.60,0.94,30.44,2.20,23.66,30.79
196687,-0.21,-0.58,0.93,36.89,3.13,28.17,30.65
196697,-0.19,-0.54,0.91,35.80,1.13,31.28,30.74
196707,-0.20,-0.46,0.88,28.53,-5.34,33.04,30.84
196717,-0.15,-0.40,0.81,12.55,-21.56,32.52,30.84
196727,-0.08,-0.37,0.75,6.95,-24.66,35.53,30.74
196737,-0.02,-0.36,0.78,8.21,-18.49,40.67,30.74
196747,0.01,-0.37,0.79,14.87,-5.19,42.12,30.74
196757,0.00,-0.37,0.84,13.92,0.00,37.01,30.79
196767,-0.03,-0.35,0.88,10.58,-4.24,32.37,30.79
196777,-0.05,-0.35,0.91,5.45,-1.66,30.08,30.69
196787,-0.11,-0.36,1.01,1.77,4.87,29.18,30.79
196797,-0.17,-0.35,1.08,-1.24,10.58,29.33,30.79
196807,-0.22,-0.35,1.10,-8.00,5.24,30.23,30.79
196817,-0.24,-0.36,1.13,-13.65,-8.60,28.96,30.69
196827,-0.16,-0.36,1.09,-13.74,-13.47,31.37,30.79
196837,-0.15,-0.38,1.07,-10.31,-9.50,35.74,30.74
196847,-0.08,-0.38,1.01,-9.45,1.33,38.46,30.74
196857,-0.04,-0.39,0.95,-15.18,10.44,35.97,30.74
196867,-0.07,-0.34,0.96,-24.96,2.75,29.76,30.74
196877,-0.05,-0.29,0.95,-35.18,-9.36,21.83,30.65
196887,-0.07,-0.28,0.95,-42.08,-14.43,10.96,30.74
196897,-0.16,-0.36,0.94,-45.85,-14.18,5.02,30.74
196907,-0.23,-0.43,0.91,-38.73,0.37,3.94,30.79
196917,-0.29,-0.46,0.90,-29.68,31.30,8.85,30.79
196927,-0.38,-0.47,0.95,-25.07,55.66,20.90,30.69
196937,-0.40,-0.42,1.03,-19.54,58.53,28.34,30.88
196947,-0.32,-0.39,1.07,-16.44,42.98,25.83,30.79
196957,-0.20,-0.35,1.02,-20.23,27.34,20.38,30.79
196967,-0.07,-0.39,0.98,-20.02,6.66,17.51,30.74
196977,0.00,-0.45,0.95,-22.21,-1.48,11.34,30.65
196987,0.12,-0.45,0.92,-21.36,4.81,7.51,30.84
196997,0.13,-0.47,0.92,-24.08,12.31,-1.40,30.84
197007,0.06,-0.50,0.92,-25.50,20.24,-10.08,30.74
197017,-0.05,-0.45,0.92,-25.66,24.56,-17.13,30.84
197027,-0.19,-0.41,0.93,-27.44,26.90,-20.20,30.84
197037,-0.32,-0.36,0.95,-29.48,21.57,-11.50,30.74
197047,-0.42,-0.34,0.99,-29.08,8.15,0.35,30.69
197057,-0.40,-0.34,1.02,-24.99,-3.86,12.20,30.69
197067,-0.32,-0.35,1.02,-23.76,-14.38,21.77,30.79
197077,-0.16,-0.40,1.00,-20.41,-22.55,26.53,30.79
197087,0.01,-0.47,0.97,-19.19,-18.63,23.16,30.79
197097,0.12,-0.50,1.00,-15.97,-10.15,15.91,30.84
197107,0.12,-0.53,1.04,-15.13,-5.47,6.52,30.69
197117,0.09,-0.53,1.07,-12.05,-4.26,-2.87,30.74
197127,0.03,-0.50,1.08,-4.95,-2.89,-9.42,30.74
197137,-0.04,-0.45,1.06,-0.44,-2.95,-12.18,30.74
197147,-0.10,-0.38,1.02,1.79,-1.21,-11.08,30.74
197157,-0.11,-0.32,1.00,1.28,2.12,-8.41,30.84
197167,-0.10,-0.31,0.98,-1.37,5.71,-6.75,30.74
197177,-0.13,-0.28,0.98,-6.41,7.25,-5.51,30.74
197187,-0.15,-0.33,1.00,-8.06,10.37,-3.92,30.79
197197,-0.17,-0.38,1.07,-6.87,10.26,-3.77,30.69
197207,-0.19,-0.41,1.09,-3.60,8.85,-3.04,30.69
197217,-0.18,-0.43,1.12,1.94,3.31,-1.91,30.79
197227,-0.13,-0.43,1.11,6.84,0.32,-3.18,30.84
197237,-0.10,-0.40,1.06,9.36,-0.44,-3.60,30.79
197247,-0.06,-0.37,1.02,7.04,2.38,-5.04,30.88
197257,-0.06,-0.36,1.00,3.16,4.43,-6.84,30.84
197267,-0.09,-0.37,1.00,0.29,4.37,-7.59,30.74
197277,-0.09,-0.38,1.00,-1.19,3.51,-7.92,30.74
197287,-0.09,-0.41,0.99,-1.08,2.63,-9.22,30.74
197297,-0.12,-0.43,1.03,-0.11,-0.85,-12.11,30.84
197307,-0.12,-0.43,1.01,0.78,-3.98,-14.63,30.84
197317,-0.14,-0.42,1.00,2.66,-8.61,-15.48,30.79
197327,-0.12,-0.41,1.00,3.76,-11.07,-15.89,30.79
197337,-0.13,-0.41,1.01,4.60,-18.03,-15.40,30.88
197347,-0.10,-0.42,1.04,4.50,-27.97,-15.98,30.79
197357,-0.05,-0.47,1.08,4.15,-40.09,-20.21,30.74
197367,-0.04,-0.55,1.17,6.64,-55.19,-26.52,30.69
197377,-0.02,-0.63,1.25,14.17,-71.88,-36.20,30.69
197387,0.02,-0.62,1.23,26.02,-78.46,-45.10,30.74
197397,0.06,-0.54,1.09,37.97,-67.40,-45.42,30.84
197407,0.09,-0.41,0.92,42.89,-37.83,-41.01,30.74
197417,0.09,-0.32,0.84,39.80,-6.37,-32.27,30.84
197427,0.03,-0.31,0.85,29.71,12.89,-31.30,30.74
197437,-0.04,-0.30,0.89,18.18,15.60,-34.79,30.74
197447,-0.04,-0.28,0.87,8.82,10.72,-37.11,30.74
197457,-0.12,-0.29,0.96,6.23,-5.95,-35.69,30.88
197467,-0.12,-0.33,0.95,5.95,-14.75,-33.98,30.69
197477,-0.12,-0.36,0.97,4.06,-13.77,-33.19,30.79
197487,-0.11,-0.39,0.98,1.73,-5.74,-31.08,30.69
197497,-0.09,-0.42,0.99,2.47,2.34,-30.84,30.79
197507,-0.08,-0.46,0.99,3.40,14.99,-30.00,30.79
197517,-0.16,-0.47,1.04,4.78,20.60,-30.76,30.79
197527,-0.22,-0.49,1.07,5.01,19.08,-29.77,30.74
197537,-0.27,-0.48,1.08,3.79,9.50,-28.98,30.74
197547,-0.28,-0.46,1.04,1.80,-3.68,-27.07,30.84
197557,-0.25,-0.43,0.98,1.44,-18.40,-23.80,30.84
197567,-0.14,-0.38,0.83,-0.85,-20.75,-22.43,30.74
197577,-0.06,-0.36,0.75,-7.25,-16.24,-21.37,30.65
197587,-0.02,-0.38,0.74,-15.34,-3.34,-19.16,30.74
197597,-0.07,-0.42,0.82,-20.46,13.48,-14.15,30.84
197607,-0.16,-0.45,0.94,-19.77,28.98,-9.92,30.69
197617,-0.26,-0.53,1.08,-13.80,39.80,-8.67,30.69
197627,-0.36,-0.59,1.21,-3.66,38.43,-8.85,30.79
197637,-0.46,-0.62,1.29,9.82,12.75,-8.85,30.79
197647,-0.51,-0.61,1.26,26.89,-32.69,-5.91,30.69
197657,-0.46,-0.61,1.23,44.18,-83.73,-3.08,30.74
197667,-0.39,-0.60,1.13,48.78,-133.10,-5.95,30.79
197677,-0.25,-0.52,0.99,49.30,-170.61,-6.90,30.84
197687,-0.08,-0.41,0.85,42.35,-178.98,-3.44,30.84
197697,0.10,-0.38,0.79,37.63,-164.70,4.06,30.74
197707,0.25,-0.35,0.77,35.98,-129.59,12.15,30.84
197717,0.41,-0.32,0.70,33.50,-87.18,15.73,30.74
197727,0.47,-0.29,0.68,30.06,-43.48,14.89,30.74
197737,0.49,-0.26,0.69,24.18,-9.16,9.54,30.79
197747,0.45,-0.24,0.68,13.79,14.26,1.13,30.79
197757,0.39,-0.27,0.71,0.08,30.21,-4.60,30.79
197767,0.29,-0.27,0.78,-17.69,42.27,-8.05,30.79
197777,0.15,-0.28,0.89,-34.95,46.76,-6.03,30.79
197787,0.05,-0.32,1.00,-44.44,45.63,1.85,30.74
197797,-0.03,-0.35,1.09,-47.83,34.56,9.24,30.79
197807,-0.03,-0.38,1.14,-47.01,17.31,12.21,30.74
197817,0.01,-0.42,1.16,-42.84,-1.11,12.70,30.65
197827,0.08,-0.45,1.14,-37.34,-14.61,12.29,30.84
197837,0.12,-0.43,1.09,-33.79,-21.22,12.72,30.74
197847,0.19,-0.41,1.03,-33.95,-16.12,12.32,30.74
197857,0.25,-0.42,0.98,-34.24,-3.57,9.01,30.84
197867,0.29,-0.43,0.96,-35.77,10.61,3.95,30.74
197877,0.29,-0.42,0.93,-34.72,22.17,-1.02,30.79
197887,0.31,-0.45,0.94,-32.84,33.83,-5.66,30.79
197897,0.27,-0.48,0.99,-28.90,35.91,-10.23,30.69
197907,0.21,-0.54,1.05,-22.76,34.66,-17.57,30.79
197917,0.14,-0.58,1.12,-16.32,30.40,-22.64,30.79
197927,0.10,-0.57,1.16,-8.35,21.08,-25.40,30.79
197937,0.06,-0.52,1.14,-2.23,12.09,-27.65,30.69
197947,0.05,-0.42,1.11,-1.30,9.02,-27.85,30.88
197957,0.03,-0.33,1.09,-4.93,12.40,-28.17,30.74
197967,-0.01,-0.26,1.09,-11.45,19.94,-29.01,30.84
197977,-0.09,-0.27,1.08,-18.58,24.84,-30.06,30.74
197987,-0.15,-0.28,1.12,-24.64,26.44,-37.13,30.84
197997,-0.21,-0.33,1.19,-30.40,15.65,-48.41,30.74
198007,-0.27,-0.36,1.28,-32.82,-15.37,-63.10,30.84
198017,-0.26,-0.49,1.35,-33.62,-49.59,-83.83,30.74
198027,-0.32,-0.46,1.36,-27.95,-110.75,-84.67,30.79
198037,-0.19,-0.45,1.23,-15.77,-146.31,-78.02,30.88
198047,-0.04,-0.41,1.14,2.11,-160.15,-61.39,30.79
198057,0.19,-0.34,0.92,25.04,-130.95,-32.70,30.88
198067,0.38,-0.25,0.73,49.66,-77.15,-0.89,30.79
198077,0.54,-0.19,0.56,66.02,-11.42,23.62,30.79
198087,0.58,-0.16,0.57,64.21,38.41,33.10,30.74
198097,0.58,-0.09,0.62,49.66,48.99,30.27,30.88
198107,0.50,-0.07,0.68,27.97,35.45,14.85,30.74
198117,0.53,-0.05,0.68,2.21,8.67,-5.07,30.84
198127,0.50,-0.05,0.70,-13.37,-9.36,-16.49,30.74
198137,0.45,-0.05,0.75,-21.60,-12.31,-18.09,30.74
198147,0.42,-0.06,0.79,-20.82,6.66,-6.78,30.84
198157,0.35,-0.08,0.88,-15.98,35.66,10.81,30.74
198167,0.31,-0.11,0.96,-12.00,64.73,27.79,30.79
198177,0.29,-0.14,1.05,-8.53,89.54,42.52,30.88
198187,0.21,-0.20,1.15,-9.45,101.25,48.84,30.79
198197,0.13,-0.25,1.23,-6.89,96.66,50.67,30.79
198207,0.08,-0.30,1.29,-2.20,85.57,47.59,30.79
198217,0.04,-0.34,1.31,3.54,69.86,41.63,30.84
198227,0.01,-0.34,1.31,9.24,52.53,34.47,30.69
198237,-0.02,-0.33,1.25,15.74,36.93,30.18,30.79
198247,-0.03,-0.29,1.20,22.03,25.08,28.46,30.74
198257,-0.03,-0.24,1.13,25.91,20.34,31.37,30.74
198267,-0.02,-0.19,1.09,25.82,21.88,38.92,30.84
198277,0.01,-0.15,1.05,24.46,31.04,50.31,30.84
198287,0.03,-0.17,1.04,22.17,45.66,61.65,30.65
198297,0.05,-0.21,1.09,17.95,55.30,67.37,30.84
198307,0.05,-0.25,1.13,16.21,55.28,63.97,30.74
198317,0.04,-0.30,1.17,16.55,40.41,54.23,30.79
198327,0.01,-0.32,1.17,19.94,17.10,42.29,30.88
198337,0.03,-0.30,1.13,25.22,-6.99,34.69,30.79
198347,0.08,-0.25,1.04,30.44,-22.46,30.23,30.79
198357,0.15,-0.20,0.94,31.45,-27.45,27.98,30.88
198367,0.20,-0.16,0.87,28.72,-23.76,28.55,30.69
198377,0.23,-0.10,0.80,23.88,-12.41,31.53,30.79
198387,0.23,-0.08,0.81,18.11,3.22,37.82,30.84
198397,0.22,-0.07,0.82,15.21,18.75,46.29,30.74
198407,0.22,-0.09,0.86,12.43,29.10,49.02,30.84
198417,0.18,-0.09,0.90,8.64,30.79,46.92,30.74
198427,0.13,-0.10,0.92,4.99,22.52,41.60,30.74
198437,0.12,-0.10,0.94,0.69,10.85,36.29,30.74
198447,0.13,-0.09,0.94,-3.18,4.03,32.43,30.74
198457,0.15,-0.10,0.92,-7.89,4.58,28.02,30.79
198467,0.16,-0.11,0.92,-13.71,10.46,21.63,30.79
198477,0.11,-0.12,0.97,-19.16,12.95,15.16,30.79
198487,0.05,-0.11,1.01,-23.68,12.38,10.87,30.79
198497,-0.02,-0.11,1.04,-27.11,9.95,10.29,30.79
198507,-0.03,-0.11,1.08,-29.28,10.35,14.05,30.79
198517,-0.05,-0.12,1.11,-29.31,9.79,17.92,30.84
198527,-0.05,-0.12,1.12,-28.26,8.38,20.84,30.74
198537,-0.01,-0.14,1.11,-30.49,6.79,20.37,30.84
198547,0.03,-0.14,1.13,-32.90,2.93,17.71,30.74
198557,0.05,-0.15,1.14,-35.66,1.25,16.61,30.74
198567,0.09,-0.17,1.13,-36.82,3.63,14.84,30.84
198577,0.09,-0.20,1.18,-37.63,7.73,12.06,30.84
198587,0.07,-0.23,1.25,-32.92,10.66,9.60,30.84
198597,0.03,-0.26,1.28,-24.49,9.85,6.66,30.69
198607,0.03,-0.25,1.28,-15.25,7.40,2.87,30.69
198617,0.02,-0.23,1.27,-5.54,3.42,-0.92,30.79
198627,0.01,-0.19,1.21,2.00,0.98,-1.85,30.79
198637,0.02,-0.15,1.18,5.39,1.48,-4.37,30.79
198647,0.01,-0.13,1.14,6.82,1.79,-7.85,30.84
198657,0.00,-0.10,1.14,7.02,-1.85,-10.75,30.79
198667,0.00,-0.08,1.12,6.37,-6.67,-14.37,30.88
198677,-0.01,-0.09,1.10,6.96,-12.56,-18.14,30.74
198687,0.00,-0.08,1.07,9.10,-17.01,-20.72,30.65
198697,0.00,-0.07,1.03,11.53,-17.16,-23.30,30.74
198707,-0.01,-0.04,1.01,14.21,-13.16,-23.54,30.74
198717,-0.03,-0.03,0.98,16.32,-9.98,-23.01,30.84
198727,-0.05,-0.01,0.95,17.45,-7.31,-22.72,30.84
198737,-0.09,-0.01,0.95,15.36,-9.05,-23.63,30.84
198747,-0.11,0.01,0.94,12.70,-14.87,-23.66,30.88
198757,-0.12,0.02,0.93,10.76,-19.04,-21.59,30.79
198767,-0.08,0.03,0.91,8.03,-19.53,-15.68,30.79
198777,-0.04,0.02,0.90,4.08,-13.01,-8.29,30.79
198787,-0.00,-0.00,0.88,0.20,-0.92,-1.31,30.79
198797,-0.01,-0.04,0.89,-4.79,7.22,1.63,30.79
198807,-0.03,-0.08,0.97,-10.52,7.22,-1.15,30.79
198817,-0.05,-0.10,1.01,-13.50,-0.63,-5.18,30.84
198827,-0.05,-0.11,1.00,-14.93,-9.48,-7.71,30.74
198837,-0.02,-0.13,0.98,-16.73,-13.71,-8.08,30.74
198847,0.00,-0.13,0.98,-20.49,-12.49,-7.07,30.74
198857,0.02,-0.13,0.99,-23.59,-7.77,-5.07,30.84
198867,0.02,-0.16,1.02,-24.75,-3.40,-1.34,30.74
198877,0.03,-0.18,1.05,-24.37,3.47,2.03,30.74
198887,0.02,-0.22,1.09,-23.56,1.02,5.98,30.79
198897,0.07,-0.26,1.07,-23.50,4.69,7.11,30.69
198907,0.08,-0.29,1.08,-23.45,5.37,5.40,30.88
198917,0.09,-0.30,1.09,-24.50,4.92,1.57,30.88
198927,0.09,-0.32,1.11,-24.82,5.47,-4.67,30.79
198937,0.07,-0.34,1.11,-24.46,3.22,-10.84,30.88
198947,0.06,-0.33,1.13,-23.77,-0.63,-14.64,30.74
198957,0.04,-0.33,1.14,-20.64,-5.31,-16.78,30.69
198967,0.04,-0.33,1.14,-16.15,-6.61,-17.33,30.84
198977,0.05,-0.32,1.12,-11.94,-4.60,-17.22,30.74
198987,0.03,-0.31,1.10,-8.52,-1.37,-15.53,30.84
198997,0.03,-0.30,1.09,-5.25,2.23,-12.00,30.74
199007,0.03,-0.29,1.07,-4.35,5.71,-6.85,30.74
199017,0.03,-0.31,1.06,-5.02,7.39,-2.60,30.84
199027,0.04,-0.32,1.08,-5.65,8.66,-0.14,30.74
199037,0.03,-0.34,1.09,-7.01,7.88,-0.60,30.79
199047,0.02,-0.35,1.11,-6.26,4.82,-4.05,30.79
199057,0.01,-0.34,1.09,-3.97,0.67,-6.93,30.79
199067,0.01,-0.33,1.08,-2.02,-3.02,-9.27,30.88
199077,0.00,-0.32,1.05,0.31,-4.44,-10.32,30.88
199087,0.02,-0.29,1.03,1.31,-2.23,-9.11,30.88
199097,0.02,-0.28,1.01,1.59,0.85,-6.55,30.69
199107,0.01,-0.28,1.00,0.99,2.38,-2.79,30.69
199117,0.00,-0.27,0.99,-1.05,5.11,-1.01,30.74
199127,0.00,-0.27,1.00,-2.67,3.66,-0.11,30.84
199137,-0.00,-0.28,1.01,-3.91,2.09,0.85,30.74
199147,0.00,-0.29,1.00,-4.66,-0.46,1.79,30.74
199157,0.00,-0.29,1.01,-5.69,-0.99,2.40,30.65
199167,0.02,-0.28,1.00,-6.15,-1.21,2.20,30.74
199177,0.03,-0.28,0.99,-6.64,0.09,1.40,30.74
199187,0.04,-0.27,0.98,-7.39,1.69,0.15,30.79
199197,0.03,-0.29,0.95,-6.46,1.74,3.60,30.79
199207,0.04,-0.27,1.00,-8.08,0.40,5.19,30.79
199217,0.06,-0.27,0.98,-8.73,-1.10,6.41,30.79
199227,0.08,-0.28,0.98,-10.08,-1.54,6.29,30.79
199237,0.10,-0.30,0.98,-10.17,-0.56,7.94,30.79
199247,0.10,-0.31,1.00,-9.68,0.21,9.68,30.84
199257,0.10,-0.32,1.03,-10.11,3.40,8.99,30.74
199267,0.09,-0.33,1.04,-9.95,4.46,5.73,30.84
199277,0.06,-0.35,1.08,-10.37,2.31,3.59,30.84
199287,0.04,-0.36,1.09,-9.82,-4.24,1.42,30.84
199297,0.02,-0.35,1.10,-8.73,-9.05,0.75,30.84
199307,0.01,-0.33,1.09,-7.57,-10.93,0.46,30.74
199317,0.01,-0.31,1.07,-6.69,-11.63,0.27,30.74
199327,0.02,-0.30,1.06,-6.40,-10.70,0.61,30.79
199337,0.03,-0.29,1.04,-7.10,-8.73,1.33,30.79
199347,0.04,-0.27,1.03,-10.02,-6.84,1.44,30.79
199357,0.06,-0.27,1.01,-12.89,-4.85,0.99,30.79
199367,0.06,-0.26,1.02,-16.17,0.47,1.24,30.79
199377,0.07,-0.27,1.05,-18.12,3.37,1.97,30.74
199387,0.06,-0.28,1.07,-18.08,5.22,2.60,30.79
199397,0.07,-0.30,1.10,-16.46,5.98,1.15,30.79
199407,0.07,-0.30,1.10,-12.85,4.93,-0.56,30.74
199417,0.07,-0.30,1.07,-9.82,4.60,-2.40,30.74
199427,0.08,-0.29,1.05,-8.06,4.78,-2.26,30.84
199437,0.10,-0.29,1.05,-6.89,6.14,-0.72,30.84
199447,0.10,-0.29,1.03,-7.45,9.25,-0.70,30.74
199457,0.11,-0.29,1.02,-8.26,12.38,-1.98,30.84
199467,0.11,-0.30,1.01,-9.24,14.09,-3.59,30.74
199477,0.10,-0.32,1.02,-9.10,13.56,-4.67,30.79
199487,0.08,-0.32,1.01,-8.11,11.74,-5.08,30.69
199497,0.08,-0.33,1.01,-8.18,11.37,-5.79,30.79
199507,0.07,-0.34,1.01,-8.03,10.85,-7.30,30.79
199517,0.05,-0.33,1.01,-7.36,10.08,-8.99,30.79
199527,0.02,-0.33,0.99,-6.56,7.05,-9.51,30.79
199537,0.02,-0.32,0.98,-6.43,6.26,-8.24,30.88
199547,0.02,-0.31,0.98,-6.85,6.05,-7.48,30.84
199557,0.02,-0.31,0.98,-7.28,4.09,-6.35,30.74
199567,0.03,-0.32,0.99,-6.47,3.13,-4.63,30.74
199577,0.03,-0.32,1.00,-5.79,2.29,-4.92,30.84
199587,0.03,-0.32,1.01,-5.50,1.92,-6.44,30.74
199597,0.03,-0.31,1.02,-5.33,0.81,-8.09,30.84
199607,0.02,-0.31,1.02,-5.30,-0.46,-8.58,30.74
199617,0.00,-0.31,1.04,-3.92,-2.23,-7.21,30.65
199627,0.01,-0.31,1.03,-3.10,-2.41,-5.36,30.79
199637,0.02,-0.31,1.03,-3.88,-1.57,-3.88,30.79
199647,0.03,-0.32,1.02,-4.50,-0.64,-3.89,30.88
199657,0.04,-0.32,1.03,-5.07,-0.93,-4.81,30.79
199667,0.05,-0.34,1.03,-5.69,-2.60,-5.30,30.79
199677,0.06,-0.36,1.04,-1.89,-6.40,-2.85,30.84
199687,0.08,-0.38,1.04,0.85,-4.24,-2.05,30.79
199697,0.11,-0.37,1.03,0.72,-2.11,-3.66,30.84
199707,0.10,-0.37,1.03,0.78,-1.30,-7.25,30.74
199717,0.09,-0.37,1.03,0.32,-2.60,-11.02,30.74
199727,0.08,-0.36,1.02,-0.69,-5.82,-13.71,30.84
199737,0.08,-0.35,0.99,-2.46,-6.23,-14.06,30.74
199747,0.09,-0.34,0.97,-4.41,-3.30,-12.21,30.74
199757,0.08,-0.34,0.97,-6.53,2.79,-10.47,30.88
199767,0.07,-0.35,0.98,-8.34,7.05,-9.91,30.79
199777,0.05,-0.37,0.98,-8.67,8.24,-8.09,30.79
199787,0.04,-0.38,1.00,-9.25,7.95,-8.31,30.79
199797,0.03,-0.37,1.00,-8.89,6.75,-9.22,30.88
199807,0.03,-0.37,0.99,-8.93,7.30,-8.67,30.74
199817,0.03,-0.37,0.98,-9.62,9.51,-8.08,30.79
199827,0.02,-0.38,1.00,-10.66,12.40,-6.87,30.84
199837,0.01,-0.39,1.02,-10.73,14.43,-5.33,30.84
199847,0.00,-0.40,1.02,-9.97,15.79,-4.08,30.84
199857,-0.01,-0.40,1.05,-8.38,14.96,-2.85,30.74
199867,-0.01,-0.41,1.05,-6.52,13.27,-1.91,30.74
199877,-0.01,-0.42,1.05,-4.85,9.98,-1.45,30.74
199887,-0.01,-0.40,1.05,-3.85,7.71,-1.37,30.84
199897,-0.02,-0.38,1.05,-3.56,4.96,-1.92,30.84
199907,-0.02,-0.34,1.04,-4.12,1.95,-0.72,30.79
199917,-0.01,-0.32,1.01,-5.74,0.79,3.31,30.79
199927,0.03,-0.32,0.99,-7.59,3.28,9.37,30.79
199937,0.07,-0.34,0.99,-9.47,10.08,14.58,30.79
199947,0.10,-0.36,1.01,-10.69,17.27,16.31,30.79
199957,0.09,-0.38,1.05,-11.51,20.11,13.25,30.79
199967,0.07,-0.37,1.08,-11.50,15.36,6.06,30.79
199977,0.05,-0.37,1.09,-10.87,4.20,-1.73,30.74
199987,0.04,-0.34,1.08,-9.80,-6.90,-8.17,30.93
199997,0.04,-0.33,1.06,-7.65,-13.95,-11.74,30.74
200007,0.04,-0.31,1.04,-4.61,-14.79,-13.16,30.84
200017,0.05,-0.29,0.99,-2.70,-10.40,-12.90,30.74
200027,0.05,-0.26,0.97,-1.53,-5.98,-12.40,30.84
200037,0.04,-0.26,0.94,-1.95,-2.46,-11.04,30.74
200047,0.02,-0.26,0.95,-2.84,-0.76,-9.22,30.84
200057,0.02,-0.26,0.94,-3.89,1.95,-6.82,30.79
200067,0.03,-0.29,0.94,-3.31,5.82,-5.69,30.79
200077,0.03,-0.31,0.95,-1.28,8.14,-5.59,30.69
200087,0.03,-0.31,0.96,-0.20,7.82,-7.18,30.79
200097,0.02,-0.32,0.94,-0.14,4.17,-9.34,30.79
200107,0.03,-0.34,0.93,0.14,0.90,-11.69,30.84
200117,0.02,-0.35,0.93,0.32,-2.44,-11.86,30.79
200127,0.03,-0.34,0.93,0.06,-4.08,-11.68,30.88
200137,0.05,-0.34,0.91,-0.34,-2.84,-11.82,30.65
200147,0.07,-0.36,0.90,-1.07,-0.61,-11.92,30.84
200157,0.04,-0.37,0.90,-3.11,-0.21,-9.60,30.84
200167,0.05,-0.37,0.95,-5.11,-0.09,-8.82,30.74
200177,0.04,-0.40,0.98,-5.42,0.34,-9.47,30.74
200187,0.02,-0.42,1.01,-5.25,-2.21,-11.25,30.84
200197,0.00,-0.43,1.04,-4.32,-7.62,-14.00,30.84
200207,-0.02,-0.42,1.04,-3.95,-16.29,-16.47,30.84
200217,-0.04,-0.42,1.06,-6.08,-28.26,-19.22,30.88
200227,-0.03,-0.41,1.08,-9.44,-42.50,-23.34,30.88
200237,-0.02,-0.42,1.07,-12.60,-58.70,-28.73,30.79
200247,0.01,-0.42,1.06,-14.11,-74.00,-31.33,30.79
200257,0.05,-0.39,1.05,-15.82,-76.64,-31.30,30.79
200267,0.11,-0.39,1.05,-14.61,-71.66,-27.39,30.79
200277,0.12,-0.39,1.05,-12.41,-60.18,-22.72,30.84
200287,0.14,-0.38,1.07,-10.27,-47.94,-17.66,30.69
200297,0.13,-0.36,1.07,-5.79,-35.40,-12.92,30.74
200307,0.12,-0.34,1.06,-1.59,-24.26,-7.05,30.74
200317,0.11,-0.30,1.06,3.77,-14.02,-0.43,30.84
200327,0.10,-0.28,1.04,6.95,-2.78,6.14,30.74
200337,0.10,-0.25,1.03,7.40,3.77,10.47,30.74
200347,0.09,-0.23,1.01,6.00,7.57,12.37,30.84
200357,0.10,-0.22,1.01,4.08,8.70,13.62,30.84
200367,0.10,-0.21,1.00,2.18,10.09,14.49,30.74
200377,0.12,-0.21,1.00,0.27,10.78,15.13,30.79
200387,0.15,-0.22,0.99,-1.19,11.42,15.25,30.79
200397,0.18,-0.23,0.97,-3.07,12.75,14.98,30.88
200407,0.22,-0.24,0.96,-5.34,15.11,14.34,30.79
200417,0.25,-0.26,0.96,-7.54,21.74,15.24,30.79
200427,0.27,-0.29,0.96,-7.63,31.48,17.66,30.79
200437,0.31,-0.32,0.96,-7.69,43.18,19.53,30.79
200447,0.32,-0.34,0.97,-7.62,53.30,19.86,30.84
200457,0.30,-0.37,1.00,-7.94,59.65,18.23,30.84
200467,0.27,-0.40,1.03,-8.98,60.27,13.98,30.84
200477,0.23,-0.43,1.06,-9.74,55.89,6.95,30.74
200487,0.17,-0.45,1.07,-10.89,47.98,-1.47,30.84
200497,0.11,-0.46,1.10,-11.76,34.56,-9.60,30.74
200507,0.06,-0.45,1.11,-12.63,19.98,-16.78,30.84
200517,0.02,-0.46,1.11,-12.31,5.71,-21.51,30.74
200527,0.00,-0.46,1.11,-10.69,-4.82,-23.39,30.69
200537,-0.01,-0.44,1.10,-8.49,-9.86,-23.82,30.79
200547,-0.01,-0.43,1.08,-5.28,-11.62,-22.24,30.79
200557,-0.02,-0.41,1.07,-1.27,-9.95,-19.74,30.79
200567,-0.04,-0.38,1.06,1.95,-7.21,-16.95,30.79
200577,-0.04,-0.36,1.05,4.12,-5.97,-14.99,30.74
200587,-0.04,-0.33,1.02,6.35,-5.02,-12.46,30.79
200597,-0.05,-0.31,0.99,8.40,-5.13,-8.85,30.84
200607,-0.03,-0.28,0.97,9.11,-2.79,-6.02,30.74
200617,0.01,-0.27,0.95,8.89,1.66,-3.66,30.84
200627,0.02,-0.26,0.94,9.16,3.25,-1.22,30.74
200637,0.05,-0.26,0.92,9.47,5.51,0.60,30.74
200647,0.07,-0.26,0.92,9.47,7.59,1.91,30.74
200657,0.10,-0.27,0.91,9.04,8.84,3.63,30.84
200667,0.13,-0.28,0.90,6.92,10.41,4.79,30.65
200677,0.16,-0.31,0.89,5.11,10.60,8.35,30.79
200687,0.21,-0.34,0.92,3.39,12.15,9.97,30.69
200697,0.24,-0.37,0.92,1.74,16.50,8.32,30.79
200707,0.26,-0.40,0.93,-0.64,19.02,5.01,30.79
200717,0.25,-0.42,0.93,-3.15,19.83,-0.85,30.79
200727,0.20,-0.42,0.95,-5.47,17.08,-5.91,30.79
200737,0.16,-0.42,0.99,-7.77,11.11,-9.76,30.79
