Millis,Acce_X,Acce_Y,Acce_Z,Gyro_X,Gyro_Y,Gyro_Z,Temp
75877,-0.31,-0.99,0.14,-7.08,-31.48,-37.44,30.55
75887,-0.34,-0.97,0.13,-8.47,-38.95,-37.56,30.46
75897,-0.38,-0.94,0.13,-7.33,-45.65,-30.53,30.46
75907,-0.38,-0.94,0.10,-3.89,-48.63,-17.39,30.46
75917,-0.37,-0.94,0.10,-0.18,-49.57,-1.42,30.46
75927,-0.36,-0.93,0.07,4.02,-52.05,15.05,30.51
75937,-0.31,-0.93,0.03,5.95,-53.05,27.51,30.51
75947,-0.26,-0.96,0.03,6.32,-55.79,36.93,30.51
75957,-0.17,-1.01,0.02,4.50,-55.73,38.53,30.51
75967,-0.11,-1.09,0.04,0.35,-55.08,29.27,30.51
75977,-0.08,-1.14,0.06,-5.34,-55.31,16.35,30.55
75987,-0.05,-1.15,0.07,-11.05,-55.30,3.18,30.55
75997,-0.01,-1.14,0.05,-15.97,-55.50,-6.40,30.55
76007,-0.01,-1.18,0.05,-19.79,-52.18,-14.27,30.46
76017,-0.03,-1.16,0.08,-24.72,-54.34,-21.40,30.55
76027,-0.02,-1.15,0.10,-24.50,-51.83,-26.84,30.55
76037,-0.04,-1.14,0.10,-17.60,-48.09,-30.52,30.51
76047,-0.06,-1.14,0.07,-7.08,-45.31,-30.87,30.51
76057,-0.06,-1.10,0.05,-0.79,-41.95,-29.97,30.51
76067,-0.10,-1.06,0.05,2.52,-41.53,-28.00,30.51
76077,-0.13,-1.04,0.03,2.60,-40.69,-25.27,30.41
76087,-0.13,-1.03,0.04,2.32,-41.11,-22.98,30.51
76097,-0.15,-1.06,0.06,3.50,-43.36,-22.15,30.46
76107,-0.16,-1.04,0.07,5.34,-44.87,-20.46,30.37
76117,-0.17,-1.03,0.04,7.25,-45.30,-16.34,30.46
76127,-0.16,-1.04,0.04,7.19,-44.60,-10.61,30.46
76137,-0.16,-1.04,0.04,5.44,-44.95,-6.56,30.55
76147,-0.16,-1.03,0.06,1.82,-44.21,-2.93,30.41
76157,-0.14,-1.04,0.06,-0.02,-44.93,0.76,30.51
76167,-0.13,-1.07,0.07,0.00,-45.08,2.37,30.51
76177,-0.13,-1.10,0.09,1.25,-46.93,0.87,30.51
76187,-0.12,-1.12,0.10,2.70,-49.48,-2.67,30.41
76197,-0.10,-1.10,0.10,2.98,-51.51,-8.27,30.46
76207,-0.14,-1.10,0.10,3.16,-58.55,-14.00,30.55
76217,-0.13,-1.10,0.08,4.34,-57.85,-14.96,30.46
76227,-0.14,-1.09,0.06,6.43,-57.36,-11.71,30.37
76237,-0.11,-1.10,0.03,6.26,-56.26,-9.80,30.55
76247,-0.11,-1.10,0.08,4.47,-54.66,-13.80,30.55
76257,-0.11,-1.08,0.07,2.66,-58.03,-19.13,30.46
76267,-0.14,-1.07,0.05,1.77,-62.06,-20.78,30.51
76277,-0.14,-1.07,0.05,1.60,-65.47,-19.50,30.41
76287,-0.13,-1.06,0.04,-0.50,-64.15,-17.85,30.51
76297,-0.13,-1.06,0.06,-2.53,-63.65,-17.21,30.51
76307,-0.13,-1.04,0.05,-2.40,-64.58,-16.18,30.51
76317,-0.13,-1.04,0.05,-0.02,-65.19,-13.54,30.60
76327,-0.15,-1.05,0.04,3.47,-65.82,-9.10,30.55
76337,-0.14,-1.03,0.03,5.47,-65.63,-4.58,30.46
76347,-0.11,-1.02,0.00,4.24,-64.50,-3.13,30.46
76357,-0.13,-1.00,0.02,1.42,-66.49,-2.49,30.46
76367,-0.14,-0.98,-0.01,-0.67,-68.29,-0.46,30.55
76377,-0.11,-1.00,-0.03,-2.67,-68.73,1.07,30.60
76387,-0.07,-1.02,-0.05,-5.77,-68.44,-2.12,30.51
76397,0.00,-1.02,-0.05,-10.00,-70.27,-14.03,30.60
76407,0.01,-0.98,-0.05,-15.11,-76.50,-29.85,30.41
76417,0.00,-0.94,-0.11,-15.82,-82.35,-36.67,30.46
76427,-0.01,-0.94,-0.14,-16.52,-81.97,-29.56,30.51
76437,-0.02,-0.95,-0.13,-15.86,-76.24,-12.40,30.46
76447,-0.01,-1.01,-0.06,-17.34,-69.37,3.01,30.46
76457,0.02,-1.04,0.01,-18.32,-67.86,10.84,30.55
76467,0.10,-1.04,-0.00,-18.06,-68.02,10.06,30.55
76477,0.13,-1.04,0.00,-17.04,-69.33,3.30,30.37
76487,0.19,-1.05,-0.07,-13.65,-71.37,-0.90,30.46
76497,0.13,-1.05,-0.07,-15.68,-72.92,-0.18,30.41
76507,0.11,-1.06,-0.06,-15.53,-71.98,7.05,30.51
76517,0.12,-1.09,-0.02,-15.65,-64.37,15.97,30.69
76527,0.15,-1.13,0.00,-10.52,-56.40,18.56,30.41
76537,0.14,-1.15,0.03,-4.35,-52.27,14.44,30.51
76547,0.16,-1.12,0.02,1.04,-54.08,7.98,30.46
76557,0.16,-1.10,0.01,2.79,-56.18,-1.73,30.46
76567,0.14,-1.08,0.00,2.52,-58.24,-9.34,30.46
76577,0.08,-1.04,-0.02,1.34,-59.66,-10.43,30.46
76587,0.08,-1.04,-0.05,1.36,-54.24,-8.56,30.55
76597,0.04,-1.06,-0.03,-0.23,-51.45,-8.08,30.46
76607,0.01,-1.04,0.00,-0.66,-52.27,-9.56,30.51
76617,-0.00,-1.01,0.00,-1.40,-54.92,-11.13,30.51
76627,0.01,-0.99,-0.00,-2.43,-57.57,-12.98,30.41
76637,0.02,-0.96,-0.02,-6.23,-58.35,-15.22,30.41
76647,0.00,-0.96,-0.02,-10.47,-60.53,-13.89,30.51
76657,-0.01,-0.99,-0.00,-12.73,-60.29,-10.35,30.51
76667,0.00,-1.02,0.02,-12.37,-59.11,-8.15,30.55
76677,0.01,-1.03,0.04,-10.03,-57.24,-9.59,30.46
76687,0.01,-1.02,0.03,-8.66,-58.50,-13.74,30.37
76697,-0.03,-1.00,0.03,-8.49,-65.83,-15.94,30.46
76707,-0.05,-1.00,-0.03,-9.74,-68.03,-11.71,30.55
76717,-0.04,-1.00,-0.05,-12.53,-71.10,-4.38,30.46
76727,0.00,-1.01,-0.03,-13.92,-66.82,0.87,30.51
76737,-0.00,-1.01,0.02,-14.92,-64.40,1.11,30.51
76747,-0.02,-1.03,0.02,-10.90,-66.95,1.97,30.51
76757,-0.00,-1.05,-0.01,-7.13,-67.98,2.06,30.51
76767,0.01,-1.05,-0.02,-5.57,-68.06,2.50,30.55
76777,-0.01,-1.06,-0.01,-6.40,-70.70,5.47,30.51
76787,0.01,-1.03,-0.04,-6.70,-72.17,10.60,30.46
76797,0.05,-1.03,-0.04,-5.15,-65.91,15.71,30.46
76807,0.07,-1.04,-0.05,-3.73,-61.98,18.49,30.46
76817,0.08,-1.07,-0.06,-3.94,-59.05,16.40,30.46
76827,0.09,-1.08,-0.06,-7.66,-58.41,7.68,30.46
76837,0.09,-1.06,-0.04,-14.34,-61.16,-9.02,30.51
76847,0.08,-0.99,-0.03,-24.85,-66.06,-27.39,30.51
76857,-0.03,-0.95,-0.03,-34.43,-75.91,-35.25,30.51
76867,-0.08,-0.94,-0.06,-33.36,-81.45,-24.47,30.60
76877,-0.08,-0.97,-0.08,-28.60,-74.43,-3.98,30.51
76887,-0.09,-1.03,-0.04,-22.85,-66.14,17.08,30.51
76897,-0.10,-1.04,-0.01,-15.69,-63.77,33.11,30.46
76907,-0.08,-1.04,-0.06,-9.44,-66.12,43.66,30.55
76917,-0.04,-1.01,-0.08,-9.82,-68.63,48.32,30.55
76927,-0.01,-0.97,-0.09,-11.66,-72.55,48.21,30.55
76937,-0.00,-0.96,-0.11,-12.20,-75.95,46.21,30.55
76947,0.02,-0.99,-0.12,-10.87,-76.82,46.63,30.46
76957,0.06,-1.00,-0.13,-8.23,-75.10,48.20,30.41
76967,0.10,-1.01,-0.10,-7.36,-71.65,46.06,30.51
76977,0.08,-1.04,-0.09,-6.76,-71.27,40.84,30.51
76987,0.09,-1.07,-0.10,-6.69,-70.63,33.45,30.41
76997,0.08,-1.09,-0.10,-6.75,-72.95,21.08,30.51
77007,0.10,-1.07,-0.12,-8.41,-73.79,8.72,30.51
77017,0.13,-1.01,-0.15,-12.11,-73.63,-2.18,30.51
77027,0.14,-0.96,-0.16,-15.16,-71.56,-11.82,30.46
77037,0.11,-0.92,-0.17,-19.40,-70.27,-21.36,30.46
77047,0.07,-0.92,-0.11,-25.37,-70.46,-31.18,30.55
77057,0.02,-0.96,-0.09,-28.15,-74.23,-35.65,30.46
77067,-0.00,-1.00,-0.09,-26.40,-73.11,-36.82,30.46
77077,-0.01,-1.01,-0.06,-23.40,-70.21,-36.78,30.46
77087,0.00,-0.99,-0.06,-21.37,-69.83,-37.59,30.51
77097,0.03,-0.98,-0.08,-19.28,-69.19,-39.97,30.41
77107,0.07,-0.97,-0.11,-17.19,-66.55,-45.07,30.51
77117,0.09,-0.96,-0.10,-16.08,-64.82,-52.35,30.51
77127,0.07,-0.91,-0.08,-18.08,-64.55,-62.38,30.51
77137,0.00,-0.90,-0.10,-19.69,-70.78,-65.73,30.41
77147,-0.03,-0.90,-0.15,-20.18,-74.92,-57.98,30.46
77157,-0.02,-0.90,-0.18,-19.98,-73.11,-43.28,30.37
77167,-0.01,-0.89,-0.15,-17.10,-70.31,-26.14,30.55
77177,0.04,-0.86,-0.16,-11.95,-64.56,-11.74,30.46
77187,0.07,-0.85,-0.16,-6.69,-60.95,-2.63,30.37
77197,0.12,-0.82,-0.17,-3.08,-61.53,0.37,30.46
77207,0.14,-0.80,-0.22,-4.35,-60.72,-0.63,30.41
77217,0.17,-0.80,-0.24,-10.79,-58.23,-4.21,30.41
77227,0.21,-0.80,-0.25,-18.75,-56.46,-9.31,30.51
77237,0.25,-0.83,-0.24,-27.89,-53.91,-18.64,30.51
77247,0.28,-0.88,-0.22,-34.44,-50.75,-33.57,30.46
77257,0.28,-0.89,-0.22,-42.85,-56.09,-51.19,30.41
77267,0.25,-0.91,-0.22,-50.67,-61.11,-63.60,30.46
77277,0.22,-0.99,-0.21,-57.39,-64.18,-69.66,30.46
77287,0.13,-1.05,-0.16,-59.19,-69.83,-63.60,30.46
77297,0.10,-1.12,-0.10,-52.64,-71.02,-43.01,30.46
77307,0.07,-1.19,-0.05,-35.91,-67.42,-16.66,30.55
77317,0.03,-1.25,-0.00,-14.50,-61.98,13.60,30.55
77327,0.01,-1.27,-0.02,9.31,-59.11,47.85,30.51
77337,0.04,-1.28,-0.06,30.14,-55.01,77.47,30.41
77347,0.11,-1.25,-0.11,44.99,-51.13,97.68,30.41
77357,0.18,-1.22,-0.17,51.73,-46.53,106.81,30.51
77367,0.26,-1.21,-0.23,50.69,-44.17,103.66,30.51
77377,0.31,-1.20,-0.27,44.46,-42.93,90.26,30.46
77387,0.36,-1.18,-0.30,33.31,-44.55,72.05,30.51
77397,0.41,-1.16,-0.32,20.49,-44.46,49.45,30.46
77407,0.38,-1.14,-0.31,6.44,-45.79,27.33,30.46
77417,0.35,-1.13,-0.29,-4.21,-45.37,8.90,30.46
77427,0.29,-1.15,-0.21,-8.98,-43.79,-4.53,30.46
77437,0.19,-1.16,-0.13,-5.59,-39.40,-10.87,30.37
77447,0.09,-1.12,-0.10,2.50,-34.47,-11.21,30.51
77457,0.02,-1.05,-0.09,8.12,-32.67,-8.47,30.51
77467,-0.00,-0.98,-0.10,9.07,-33.18,-5.77,30.60
77477,0.00,-0.93,-0.14,6.29,-34.12,-5.05,30.41
77487,0.03,-0.91,-0.19,-0.03,-34.21,-5.73,30.51
77497,0.03,-0.93,-0.18,-7.71,-36.27,-7.48,30.51
77507,0.02,-0.96,-0.16,-13.82,-39.40,-8.09,30.37
77517,-0.00,-0.99,-0.12,-15.77,-42.18,-4.76,30.46
77527,0.00,-1.02,-0.09,-14.81,-42.69,1.59,30.37
77537,0.02,-1.04,-0.06,-11.07,-41.77,8.43,30.55
77547,0.03,-1.08,-0.05,-6.05,-39.16,12.90,30.46
77557,0.05,-1.07,-0.06,-2.66,-38.53,14.23,30.55
77567,0.06,-1.06,-0.08,-1.27,-38.69,12.93,30.41
77577,0.08,-1.03,-0.11,-0.81,-39.95,9.92,30.51
77587,0.06,-1.01,-0.13,-1.05,-40.12,6.89,30.51
77597,0.05,-0.97,-0.13,-3.31,-40.24,5.62,30.60
77607,0.04,-0.96,-0.11,-7.60,-40.61,3.73,30.51
77617,0.03,-0.95,-0.12,-11.68,-40.90,1.77,30.41
77627,0.04,-0.94,-0.13,-14.95,-40.03,1.31,30.46
77637,0.09,-0.94,-0.16,-19.65,-35.85,-1.31,30.55
77647,0.13,-0.94,-0.13,-26.09,-31.57,-9.30,30.46
77657,0.19,-0.92,-0.11,-31.74,-26.37,-22.11,30.46
77667,0.21,-0.90,-0.11,-36.09,-22.99,-38.35,30.46
77677,0.18,-0.87,-0.12,-40.66,-17.65,-54.00,30.46
77687,0.11,-0.85,-0.15,-40.67,-18.87,-62.34,30.41
77697,0.03,-0.85,-0.18,-41.13,-20.11,-61.16,30.51
77707,-0.03,-0.87,-0.20,-38.89,-22.73,-47.82,30.41
77717,-0.05,-0.89,-0.21,-35.98,-25.01,-28.18,30.51
77727,-0.01,-0.95,-0.18,-33.37,-25.62,-12.23,30.46
77737,0.05,-0.99,-0.16,-30.98,-24.84,-3.62,30.51
77747,0.07,-1.02,-0.13,-26.60,-29.40,-0.84,30.37
77757,0.15,-1.04,-0.14,-22.92,-29.31,-2.12,30.46
77767,0.16,-1.04,-0.15,-20.46,-34.14,-3.42,30.46
77777,0.15,-1.04,-0.16,-17.86,-33.91,-0.29,30.46
77787,0.15,-1.03,-0.19,-16.49,-31.59,5.01,30.55
77797,0.12,-1.03,-0.18,-14.03,-30.23,12.58,30.37
77807,0.17,-1.03,-0.18,-8.43,-23.53,20.38,30.41
77817,0.06,-1.01,-0.13,-2.92,-39.27,24.85,30.51
77827,0.24,-0.98,-0.24,4.58,-19.63,30.11,30.51
77837,0.25,-1.02,-0.23,9.91,-11.37,29.69,30.51
77847,0.29,-1.00,-0.27,11.28,-7.79,23.47,30.51
77857,0.30,-1.00,-0.29,4.31,-5.82,15.31,30.55
77867,0.31,-1.00,-0.26,-3.33,-7.57,4.76,30.46
77877,0.32,-1.01,-0.27,-9.65,-5.53,-6.75,30.37
77887,0.30,-1.03,-0.27,-11.04,-4.09,-13.51,30.46
77897,0.24,-1.05,-0.27,-10.35,0.95,-13.36,30.46
77907,0.20,-1.07,-0.23,-8.14,2.49,-12.52,30.46
77917,0.16,-1.06,-0.20,-5.25,6.82,-10.32,30.46
77927,0.11,-1.05,-0.17,-0.52,11.10,-6.24,30.41
77937,0.07,-1.04,-0.15,2.64,12.78,-3.11,30.51
77947,0.07,-0.99,-0.15,4.40,11.01,0.50,30.51
77957,0.06,-0.97,-0.17,4.72,8.37,2.70,30.51
77967,0.07,-0.95,-0.20,2.78,6.70,6.14,30.51
77977,0.08,-0.95,-0.24,-0.44,6.93,10.90,30.41
77987,0.11,-0.98,-0.23,-4.76,8.14,14.38,30.55
77997,0.11,-1.02,-0.20,-8.06,10.46,12.99,30.46
78007,0.11,-1.03,-0.15,-10.32,12.41,8.11,30.55
78017,0.10,-1.03,-0.15,-9.97,11.65,2.92,30.55
78027,0.08,-1.05,-0.12,-7.95,11.05,-1.18,30.37
78037,0.08,-1.04,-0.13,-4.89,11.65,-2.03,30.46
78047,-0.45,-1.27,0.21,7.33,-43.02,10.49,30.46
78057,-0.18,-1.33,-0.15,1.22,-13.36,29.24,30.46
78067,-0.08,-1.29,-0.06,3.73,-6.75,34.99,30.51
78077,-0.06,-1.11,-0.15,10.21,10.56,42.52,30.41
78087,-0.02,-1.03,-0.22,15.85,27.83,46.58,30.60
78097,-0.02,-1.00,-0.20,18.03,24.70,44.17,30.51
78107,-0.01,-1.02,-0.16,21.16,5.04,35.45,30.51
78117,-0.05,-1.03,-0.15,22.69,-8.70,27.56,30.46
78127,0.07,-1.26,-0.01,30.26,-12.12,19.48,30.46
78137,0.07,-1.19,-0.11,30.15,-11.88,16.23,30.46
78147,0.07,-1.19,-0.06,33.40,-6.46,13.40,30.55
78157,0.05,-1.17,0.03,40.23,-1.92,5.45,30.46
78167,0.26,-1.25,0.04,53.33,18.24,-11.01,30.55
78177,0.45,-1.21,-0.07,63.91,38.00,-32.58,30.55
78187,0.23,-1.24,-0.11,61.05,33.69,-43.30,30.46
78197,-0.99,-0.13,-0.21,36.37,5.92,13.47,30.51
78207,-0.52,-0.72,-0.35,6.72,23.51,58.52,30.51
78217,-0.23,-0.75,0.02,6.23,16.43,56.67,30.51
78227,0.06,-0.74,-0.27,-9.73,24.93,54.06,30.51
78237,0.04,-0.98,-0.00,0.90,14.03,51.01,30.51
78247,-0.07,-1.10,0.06,11.33,-1.66,46.73,30.55
78257,-0.04,-1.06,-0.04,16.06,-1.24,48.34,30.51
78267,-0.07,-1.05,-0.06,12.05,1.62,54.23,30.46
78277,-0.04,-1.08,-0.05,7.79,13.31,58.43,30.55
78287,-0.05,-1.15,-0.07,3.95,19.39,59.60,30.55
78297,-0.07,-1.17,-0.06,-0.20,13.57,58.89,30.46
78307,-0.06,-1.23,-0.02,3.15,5.27,54.93,30.46
78317,-0.07,-1.25,-0.02,3.45,1.19,46.29,30.46
78327,-0.10,-1.14,0.10,5.07,-0.14,37.27,30.46
78337,0.02,-1.18,0.05,17.31,4.20,29.13,30.51
78347,0.12,-1.27,-0.06,26.29,15.69,17.44,30.51
78357,0.32,-1.30,-0.08,35.05,28.43,-11.13,30.51
78367,0.59,-1.31,-0.14,35.48,40.56,-51.31,30.51
78377,0.36,-1.17,-0.31,17.69,34.60,-73.89,30.37
78387,0.20,-1.11,-0.26,0.20,35.40,-85.62,30.51
78397,0.08,-1.06,-0.19,-11.60,36.95,-88.99,30.41
78407,-0.05,-0.99,-0.15,-14.78,38.20,-77.89,30.46
78417,-0.12,-0.95,-0.13,-11.56,42.49,-59.08,30.37
78427,-0.13,-0.93,-0.12,-3.95,46.12,-41.79,30.55
78437,-0.16,-0.93,-0.10,3.60,42.02,-27.94,30.55
78447,-0.12,-0.91,-0.10,6.90,35.36,-17.91,30.55
78457,-0.06,-0.90,-0.10,10.41,32.23,-9.44,30.55
78467,0.02,-0.90,-0.13,10.78,33.37,-0.56,30.46
78477,0.09,-0.91,-0.14,11.85,38.09,5.82,30.60
78487,0.11,-0.94,-0.14,11.31,41.15,8.66,30.51
78497,0.15,-0.97,-0.12,10.32,43.76,8.00,30.41
78507,0.18,-0.99,-0.10,8.99,45.89,3.28,30.55
78517,0.20,-1.02,-0.10,8.43,46.76,-5.13,30.51
78527,0.20,-0.99,-0.12,7.66,49.16,-12.37,30.41
78537,0.21,-0.99,-0.14,6.87,51.60,-17.53,30.46
78547,0.22,-0.98,-0.16,6.92,55.80,-19.62,30.46
78557,0.20,-0.97,-0.15,5.65,59.44,-21.73,30.46
78567,0.17,-0.97,-0.14,3.83,61.30,-23.10,30.46
78577,0.16,-0.94,-0.13,3.44,62.61,-22.67,30.55
78587,0.14,-0.92,-0.12,4.53,63.94,-20.44,30.55
78597,0.15,-0.88,-0.13,7.33,65.63,-16.03,30.51
78607,0.16,-0.83,-0.16,9.76,68.64,-9.62,30.51
78617,0.21,-0.78,-0.21,13.16,72.35,-1.33,30.41
78627,0.27,-0.76,-0.25,18.47,79.45,7.21,30.51
78637,0.31,-0.76,-0.29,26.18,88.14,18.09,30.51
78647,0.29,-0.84,-0.32,31.98,100.09,24.90,30.51
78657,0.20,-0.95,-0.25,31.22,105.01,25.73,30.41
78667,0.11,-1.04,-0.18,26.89,100.12,22.17,30.46
78677,0.05,-1.12,-0.11,22.24,95.77,12.95,30.46
78687,-0.02,-1.20,-0.02,24.03,92.34,1.91,30.55
78697,-0.08,-1.20,0.03,28.84,85.94,-7.53,30.46
78707,-0.10,-1.17,0.05,38.46,79.63,-11.54,30.46
78717,-0.10,-1.12,0.03,53.37,79.50,-7.59,30.55
78727,-0.07,-1.08,-0.09,64.05,89.85,-1.08,30.46
78737,-0.11,-1.07,-0.12,62.26,96.49,6.11,30.51
78747,-0.14,-1.05,-0.11,50.12,96.96,11.66,30.41
78757,-0.14,-1.07,-0.08,32.85,95.28,10.90,30.51
78767,-0.15,-1.07,-0.02,18.61,89.86,1.51,30.60
78777,-0.16,-1.10,0.03,10.78,80.72,-11.73,30.51
78787,-0.18,-1.09,0.05,6.61,73.19,-21.07,30.51
78797,-0.19,-1.08,0.05,6.38,69.02,-24.49,30.41
78807,-0.17,-1.06,0.03,7.62,68.02,-22.66,30.46
78817,-0.15,-1.05,0.02,8.70,70.87,-16.05,30.37
78827,-0.16,-1.05,0.01,10.49,74.08,-6.29,30.55
78837,-0.15,-1.06,0.02,11.37,77.13,2.64,30.55
78847,-0.12,-1.07,0.02,11.48,77.98,7.51,30.46
78857,-0.10,-1.08,0.06,9.57,75.74,5.82,30.46
78867,-0.08,-1.07,0.08,10.38,70.26,1.30,30.46
78877,-0.04,-1.08,0.06,11.37,68.76,-2.09,30.51
78887,-0.05,-1.06,0.06,12.08,70.46,-2.60,30.51
78897,-0.05,-1.07,0.06,13.62,72.47,0.56,30.51
78907,-0.06,-1.08,0.06,14.72,73.94,4.66,30.51
78917,-0.06,-1.09,0.08,15.19,73.18,9.22,30.51
78927,-0.04,-1.08,0.09,19.19,73.79,14.18,30.60
78937,-0.01,-1.03,0.04,25.22,73.92,18.32,30.46
78947,0.05,-1.03,-0.02,33.48,88.24,22.69,30.55
78957,0.02,-0.98,-0.11,33.07,85.28,21.50,30.55
78967,-0.02,-0.93,-0.14,23.45,79.51,15.82,30.46
78977,-0.04,-0.92,-0.13,7.73,74.03,8.76,30.55
78987,-0.03,-0.96,-0.10,-6.64,72.84,0.31,30.55
78997,-0.04,-1.00,-0.02,-15.65,66.78,-11.39,30.55
79007,-0.02,-1.04,-0.02,-17.83,68.08,-22.27,30.41
79017,-0.04,-1.07,-0.00,-18.43,66.05,-31.91,30.60
79027,-0.14,-1.09,0.07,-16.63,61.85,-36.67,30.51
79037,-0.16,-1.09,0.05,-14.79,58.32,-34.43,30.51
79047,-0.16,-1.07,0.02,-13.39,61.04,-25.74,30.51
79057,-0.18,-1.09,0.07,-10.79,70.06,-15.89,30.51
79067,-0.17,-1.09,0.07,-6.58,73.01,-6.11,30.46
79077,-0.15,-1.09,0.09,-1.08,75.74,-0.95,30.55
79087,-0.15,-1.04,0.11,2.17,71.53,-2.78,30.46
79097,-0.15,-0.98,0.08,2.34,65.39,-7.77,30.46
79107,-0.12,-0.90,0.00,0.23,62.03,-9.95,30.55
79117,-0.10,-0.89,-0.04,-3.57,62.92,-9.51,30.46
79127,-0.10,-0.89,-0.02,-9.08,65.53,-8.06,30.41
79137,-0.12,-0.90,0.02,-11.68,66.31,-3.76,30.41
79147,-0.11,-0.94,0.06,-9.82,69.47,4.05,30.51
79157,-0.12,-1.01,0.09,-3.36,71.91,12.64,30.41
79167,-0.11,-1.04,0.12,5.92,74.55,20.17,30.51
79177,-0.09,-1.06,0.11,15.24,77.71,25.92,30.51
79187,-0.09,-1.07,0.08,21.37,79.31,29.97,30.51
79197,-0.08,-1.05,0.07,21.16,79.88,29.30,30.46
79207,-0.07,-1.02,0.05,19.08,78.37,27.56,30.46
79217,-0.03,-0.98,0.03,18.35,78.58,24.60,30.46
79227,-0.00,-0.97,-0.02,18.43,79.22,20.95,30.37
79237,0.01,-0.94,-0.04,16.43,80.81,15.92,30.46
79247,-0.00,-0.94,-0.03,12.69,79.94,11.01,30.46
79257,-0.06,-0.95,-0.01,8.05,79.42,8.18,30.55
79267,-0.13,-0.99,0.05,10.58,80.41,14.06,30.60
79277,-0.22,-1.02,0.12,20.58,85.57,28.20,30.41
79287,-0.22,-0.99,0.10,35.37,92.46,43.54,30.51
79297,-0.19,-0.94,0.07,43.54,95.95,49.94,30.51
79307,-0.15,-0.88,0.05,40.70,94.37,41.13,30.51
79317,-0.11,-0.81,-0.01,31.57,80.02,23.92,30.51
79327,-0.10,-0.77,-0.08,19.89,70.15,7.34,30.55
79337,-0.09,-0.75,-0.12,7.83,66.00,-3.88,30.55
79347,-0.14,-0.77,-0.13,-5.11,66.11,-7.24,30.46
79357,-0.19,-0.84,-0.11,-15.97,68.26,-5.21,30.55
79367,-0.23,-0.91,-0.00,-20.15,67.48,-0.85,30.46
79377,-0.23,-0.98,0.03,-19.42,70.90,5.07,30.55
79387,-0.24,-1.03,0.08,-16.31,70.00,11.92,30.46
79397,-0.22,-1.05,0.07,-10.02,73.18,18.00,30.51
79407,-0.18,-1.05,0.08,-5.91,76.53,21.28,30.41
79417,-0.17,-1.05,0.09,-3.97,75.88,20.08,30.51
79427,-0.16,-1.04,0.07,-1.27,75.48,17.65,30.51
79437,-0.15,-1.03,0.03,1.57,75.45,17.19,30.51
79447,-0.14,-1.00,-0.02,3.95,81.34,19.57,30.51
79457,-0.13,-1.04,-0.01,4.29,87.19,19.71,30.46
79467,-0.15,-1.07,0.02,2.02,90.38,13.21,30.55
79477,-0.18,-1.05,0.08,-1.47,83.76,2.89,30.55
79487,-0.22,-1.07,0.09,-1.92,81.68,-9.82,30.46
79497,-0.27,-1.06,0.08,-0.44,76.99,-18.50,30.55
79507,-0.28,-1.03,0.02,0.55,76.47,-22.76,30.46
79517,-0.28,-0.98,0.01,-1.69,77.65,-24.60,30.46
79527,-0.29,-0.94,-0.02,-5.60,77.57,-25.37,30.60
79537,-0.29,-0.93,-0.01,-9.22,75.05,-23.36,30.51
79547,-0.29,-0.94,-0.03,-12.21,76.34,-18.67,30.51
79557,-0.29,-0.97,-0.02,-13.65,79.69,-12.08,30.51
79567,-0.28,-1.01,-0.02,-14.03,81.10,-5.62,30.41
79577,-0.24,-1.07,0.01,-13.25,83.05,-1.74,30.51
79587,-0.23,-1.11,0.06,-11.07,84.17,-3.71,30.46
79597,-0.22,-1.15,0.11,-6.81,83.15,-9.94,30.46
79607,-0.21,-1.14,0.10,-1.91,81.42,-18.99,30.46
79617,-0.22,-1.08,0.10,0.99,76.67,-28.58,30.46
79627,-0.25,-1.01,0.03,2.20,72.15,-33.33,30.55
79637,-0.28,-0.97,-0.04,-1.69,70.82,-32.85,30.46
79647,-0.30,-0.95,-0.07,-8.56,72.08,-27.65,30.51
79657,-0.31,-0.99,-0.04,-14.66,73.73,-20.26,30.51
79667,-0.31,-1.04,-0.01,-17.94,74.43,-13.92,30.51
79677,-0.31,-1.09,0.04,-16.26,73.28,-9.21,30.51
79687,-0.30,-1.14,0.07,-12.21,72.69,-7.10,30.51
79697,-0.30,-1.13,0.12,-7.83,69.98,-9.01,30.51
79707,-0.29,-1.12,0.14,-2.49,66.37,-13.71,30.55
79717,-0.30,-1.10,0.13,-0.41,62.12,-17.01,30.46
79727,-0.32,-1.07,0.08,0.70,60.61,-16.78,30.55
79737,-0.35,-1.07,0.06,0.64,60.29,-12.37,30.46
79747,-0.37,-1.06,0.05,1.44,59.24,-4.82,30.55
79757,-0.38,-1.06,0.06,0.44,59.10,3.53,30.55
79767,-0.37,-1.07,0.07,2.23,57.59,10.11,30.55
79777,-0.35,-1.08,0.11,4.00,54.84,11.97,30.41
79787,-0.32,-1.08,0.13,6.05,50.53,10.84,30.51
79797,-0.31,-1.07,0.12,6.37,45.45,6.81,30.41
79807,-0.29,-1.03,0.09,6.11,40.47,3.89,30.51
79817,-0.30,-1.02,0.06,5.01,37.89,2.67,30.51
79827,-0.30,-1.05,0.05,2.84,35.98,3.40,30.51
79837,-0.28,-1.08,0.06,0.73,35.13,3.08,30.46
79847,-0.30,-1.12,0.09,-0.29,32.09,1.22,30.55
79857,-0.28,-1.13,0.11,2.06,28.17,-1.91,30.55
79867,-0.26,-1.08,0.12,3.85,25.33,-5.62,30.55
79877,-0.25,-1.02,0.10,6.58,23.40,-6.63,30.46
79887,-0.25,-0.95,0.03,6.55,24.44,-3.94,30.55
79897,-0.26,-0.93,0.01,4.98,24.53,2.96,30.55
79907,-0.28,-0.96,-0.00,1.77,24.29,10.31,30.51
79917,-0.28,-1.01,0.02,-1.66,21.97,15.85,30.51
79927,-0.24,-1.05,0.07,-1.88,21.21,16.72,30.51
79937,-0.19,-1.08,0.10,-0.50,20.35,12.78,30.41
79947,-0.16,-1.06,0.09,2.29,17.45,5.16,30.41
79957,-0.15,-1.02,0.09,4.06,12.63,-2.82,30.51
79967,-0.17,-0.97,0.06,4.41,9.04,-8.67,30.46
79977,-0.19,-0.97,0.04,2.24,7.40,-11.11,30.46
79987,-0.22,-0.98,0.03,-1.54,6.95,-10.78,30.46
79997,-0.23,-1.01,0.05,-5.27,6.79,-9.60,30.55
80007,-0.22,-1.01,0.09,-6.73,6.63,-8.41,30.55
80017,-0.20,-0.96,0.08,-5.27,5.13,-5.27,30.55
80027,-0.19,-0.94,0.05,-3.45,5.65,0.27,30.51
80037,-0.18,-0.94,0.03,-1.94,6.02,6.85,30.41
80047,-0.17,-0.96,0.03,-2.41,7.57,11.42,30.51
80057,-0.16,-1.01,0.05,-4.64,7.07,10.73,30.51
80067,-0.15,-1.05,0.08,-6.73,3.95,5.73,30.55
80077,-0.14,-1.03,0.09,-7.76,0.37,-1.27,30.51
80087,-0.12,-1.01,0.07,-7.51,-1.79,-6.87,30.46
80097,-0.13,-0.96,0.04,-7.68,-3.45,-8.40,30.55
80107,-0.14,-0.94,0.01,-8.50,-2.70,-6.46,30.46
80117,-0.14,-0.95,-0.01,-10.95,-1.28,-3.45,30.46
80127,-0.15,-0.98,0.00,-14.05,-1.16,-0.79,30.46
80137,-0.14,-1.01,0.01,-16.37,-0.56,0.35,30.55
80147,-0.13,-1.04,0.04,-17.24,-0.85,-0.43,30.55
80157,-0.12,-1.04,0.06,-16.69,-2.43,-2.81,30.41
80167,-0.12,-1.04,0.08,-13.65,-3.47,-6.03,30.51
80177,-0.12,-1.00,0.08,-9.95,-3.02,-6.81,30.60
80187,-0.13,-0.99,0.06,-7.51,-1.45,-5.18,30.41
80197,-0.14,-0.99,0.02,-7.73,1.91,-2.53,30.46
80207,-0.15,-1.00,0.01,-10.29,2.35,-0.76,30.41
80217,-0.16,-1.03,0.02,-12.87,-0.09,-1.16,30.55
80227,-0.15,-1.06,0.04,-14.64,-2.40,-2.87,30.55
80237,-0.12,-1.05,0.07,-13.42,-2.98,-4.89,30.46
80247,-0.12,-1.05,0.06,-9.59,-2.14,-6.12,30.46
80257,-0.12,-1.05,0.06,-6.02,-1.11,-6.92,30.46
80267,-0.12,-1.06,0.05,-3.76,-2.02,-7.73,30.55
80277,-0.13,-1.04,0.04,-4.49,-2.49,-9.07,30.41
80287,-0.13,-1.04,0.04,-5.10,-2.18,-9.56,30.41
80297,-0.14,-1.01,0.04,-5.18,-2.41,-8.29,30.41
80307,-0.13,-0.99,0.03,-3.94,-0.53,-4.76,30.51
80317,-0.13,-0.98,0.01,-2.81,1.27,-0.24,30.51
80327,-0.14,-0.99,-0.00,-3.22,2.37,3.86,30.55
80337,-0.14,-1.01,0.02,-4.41,2.08,5.83,30.41
80347,-0.13,-1.03,0.03,-5.08,0.95,6.18,30.46
80357,-0.11,-1.04,0.03,-4.38,1.79,4.72,30.55
80367,-0.11,-1.05,0.05,-3.85,2.43,1.94,30.46
80377,-0.10,-1.03,0.04,-3.66,1.85,-1.60,30.46
80387,-0.12,-1.03,0.04,-3.27,0.08,-4.05,30.55
80397,-0.13,-1.01,0.03,-3.10,-1.22,-3.63,30.55
80407,-0.13,-1.01,0.02,-2.73,-0.40,-1.40,30.60
80417,-0.12,-1.00,0.02,-3.53,1.19,1.16,30.51
80427,-0.10,-1.00,0.02,-4.99,2.17,1.77,30.60
80437,-0.08,-1.02,0.02,-7.68,1.73,-0.93,30.60
80447,-0.09,-1.02,0.03,-8.89,-0.29,-3.94,30.60
80457,-0.09,-1.03,0.04,-8.70,-2.31,-6.38,30.55
80467,-0.09,-1.03,0.03,-8.06,-2.75,-7.04,30.46
80477,-0.10,-1.03,0.02,-7.86,-1.73,-7.83,30.55
80487,-0.11,-1.01,0.04,-7.79,-0.67,-7.05,30.46
80497,-0.11,-1.01,0.03,-7.57,-0.49,-5.83,30.46
80507,-0.11,-1.01,0.03,-8.09,-0.92,-4.05,30.55
80517,-0.10,-1.00,0.02,-7.85,-0.11,-2.37,30.46
80527,-0.09,-1.01,0.02,-7.68,2.60,-0.09,30.51
80537,-0.10,-1.01,0.03,-5.92,2.49,2.55,30.41
80547,-0.08,-1.01,0.02,-4.96,4.70,4.14,30.41
80557,-0.09,-1.00,0.02,-4.89,4.61,5.37,30.51
80567,-0.10,-1.01,0.03,-5.05,3.54,5.76,30.51
80577,-0.11,-1.01,0.03,-5.11,1.85,6.98,30.51
80587,-0.10,-1.02,0.03,-2.93,4.50,10.67,30.46
80597,-0.14,-1.01,0.04,-0.37,4.72,15.13,30.55
80607,-0.16,-1.00,0.04,2.73,5.91,22.44,30.55
80617,-0.16,-0.99,0.03,6.08,9.19,30.52,30.55
80627,-0.16,-1.00,0.02,7.31,11.85,35.91,30.46
80637,-0.15,-1.02,0.02,4.93,12.47,35.36,30.46
80647,-0.10,-1.03,0.01,-0.78,9.98,27.04,30.46
80657,-0.07,-1.06,0.02,-8.41,3.57,11.57,30.46
80667,-0.06,-1.07,0.05,-14.85,-1.97,-6.09,30.41
80677,-0.06,-1.06,0.04,-18.40,-8.56,-20.09,30.51
80687,-0.07,-1.06,0.03,-19.07,-8.37,-27.89,30.51
80697,-0.10,-1.05,0.03,-17.82,-6.81,-29.92,30.60
80707,-0.13,-1.03,0.03,-15.57,-6.24,-26.66,30.51
80717,-0.14,-1.02,0.02,-13.02,-3.53,-20.31,30.46
80727,-0.16,-1.02,0.01,-10.35,-1.63,-12.52,30.55
80737,-0.15,-1.01,0.02,-7.94,0.31,-4.55,30.37
80747,-0.13,-1.02,0.03,-4.78,3.08,1.97,30.55
80757,-0.11,-1.02,0.02,-2.78,4.46,4.69,30.55
80767,-0.11,-1.02,0.01,-2.55,2.85,3.82,30.46
80777,-0.10,-1.03,0.01,-3.47,0.37,1.24,30.55
80787,-0.08,-1.04,0.03,-5.22,-0.12,-2.18,30.37
80797,-0.08,-1.04,0.02,-6.31,-0.26,-5.18,30.41
80807,-0.09,-1.04,0.03,-6.11,-0.03,-7.28,30.41
80817,-0.10,-1.02,0.03,-4.17,0.34,-8.14,30.51
80827,-0.10,-1.02,0.01,-3.16,1.82,-7.08,30.41
80837,-0.10,-0.99,-0.01,-3.62,4.38,-4.92,30.51
80847,-0.11,-1.00,-0.01,-4.79,7.95,-0.87,30.46
80857,-0.11,-1.01,-0.02,-6.73,10.11,3.40,30.37
