Millis,Acce_X,Acce_Y,Acce_Z,Gyro_X,Gyro_Y,Gyro_Z,Temp
147497,0.01,-0.39,1.03,-11.97,0.08,-5.21,30.69
147507,-0.01,-0.39,1.02,-11.60,-2.02,-5.19,30.69
147517,-0.03,-0.39,1.05,-10.60,-4.11,-4.85,30.69
147527,-0.04,-0.39,1.06,-9.69,-6.02,-4.73,30.74
147537,-0.06,-0.39,1.09,-10.37,-10.85,-5.98,30.69
147547,-0.09,-0.38,1.13,-11.13,-18.89,-8.89,30.65
147557,-0.14,-0.39,1.19,-12.21,-31.54,-13.73,30.65
147567,-0.20,-0.37,1.22,-13.16,-47.94,-16.96,30.65
147577,-0.20,-0.36,1.21,-14.63,-54.90,-16.81,30.65
147587,-0.23,-0.35,1.20,-15.86,-57.89,-13.62,30.74
147597,-0.23,-0.36,1.19,-12.67,-62.90,-7.63,30.74
147607,-0.23,-0.37,1.11,-10.49,-60.02,-1.28,30.69
147617,-0.20,-0.37,1.07,-8.63,-56.92,5.02,30.69
147627,-0.17,-0.37,1.01,-7.28,-53.02,10.64,30.69
147637,-0.16,-0.38,0.98,-5.57,-45.63,15.28,30.60
147647,-0.14,-0.42,0.98,-4.37,-35.59,20.00,30.60
147657,-0.14,-0.46,0.98,-1.94,-24.67,23.74,30.74
147667,-0.15,-0.50,1.00,1.16,-16.27,27.18,30.69
147677,-0.15,-0.52,1.03,5.04,-12.34,28.49,30.65
147687,-0.17,-0.50,1.03,10.47,-12.87,29.31,30.65
147697,-0.20,-0.47,1.03,15.33,-14.29,32.72,30.74
147707,-0.20,-0.45,1.01,18.09,-14.69,38.73,30.74
147717,-0.20,-0.44,1.00,16.18,-14.08,45.57,30.65
147727,-0.20,-0.45,1.02,11.69,-15.63,52.61,30.65
147737,-0.17,-0.48,1.04,8.02,-16.34,58.02,30.79
147747,-0.16,-0.49,1.06,6.60,-20.66,62.06,30.60
147757,-0.13,-0.51,1.06,7.21,-25.15,65.11,30.69
147767,-0.11,-0.53,1.07,9.28,-30.00,67.63,30.79
147777,-0.06,-0.54,1.06,9.79,-31.68,69.16,30.60
147787,-0.04,-0.54,1.06,8.79,-31.16,70.17,30.65
147797,-0.03,-0.56,1.06,8.43,-30.49,71.73,30.69
147807,-0.01,-0.55,1.08,9.63,-28.79,73.95,30.65
147817,0.02,-0.54,1.05,12.46,-27.10,75.34,30.55
147827,0.04,-0.53,1.05,13.57,-24.79,76.67,30.65
147837,0.06,-0.54,1.03,14.46,-21.13,77.51,30.65
147847,0.07,-0.57,1.05,15.11,-17.94,77.66,30.65
147857,0.07,-0.58,1.06,15.16,-14.35,76.21,30.65
147867,0.05,-0.60,1.08,16.66,-14.69,74.08,30.69
147877,0.02,-0.61,1.09,20.03,-19.30,71.73,30.69
147887,-0.01,-0.60,1.09,23.68,-29.62,70.14,30.60
147897,-0.01,-0.55,1.00,29.22,-35.98,71.19,30.69
147907,0.01,-0.52,0.94,29.68,-37.91,74.72,30.69
147917,0.04,-0.50,0.88,27.79,-34.41,78.38,30.65
147927,0.07,-0.50,0.85,22.67,-25.80,80.73,30.60
147937,0.07,-0.51,0.85,17.77,-17.76,80.56,30.65
147947,0.05,-0.54,0.91,13.97,-15.66,77.18,30.65
147957,-0.04,-0.57,0.98,12.40,-24.31,74.20,30.65
147967,-0.08,-0.52,0.95,20.60,-32.64,76.46,30.74
147977,-0.07,-0.47,0.85,25.21,-29.79,84.32,30.65
147987,-0.04,-0.43,0.81,22.26,-24.17,92.81,30.65
147997,0.04,-0.44,0.79,14.47,-13.01,99.91,30.65
148007,0.08,-0.49,0.81,4.35,1.79,100.72,30.69
148017,0.06,-0.56,0.95,-1.73,4.72,96.78,30.60
148027,0.00,-0.61,1.04,-0.32,0.90,92.87,30.60
148037,-0.06,-0.59,1.14,6.46,-9.95,89.47,30.69
148047,-0.10,-0.52,1.05,18.99,-17.28,93.27,30.65
148057,-0.07,-0.47,0.94,24.14,-12.56,103.65,30.69
148067,-0.01,-0.49,0.90,19.27,-1.73,112.64,30.65
148077,0.04,-0.53,0.93,9.74,9.89,116.29,30.65
148087,0.02,-0.60,1.01,1.89,12.78,113.37,30.65
148097,-0.06,-0.66,1.13,0.47,-0.31,107.16,30.65
148107,-0.09,-0.65,1.17,4.89,-21.63,100.08,30.55
148117,-0.10,-0.59,1.13,13.40,-44.05,96.79,30.65
148127,-0.09,-0.54,1.04,17.57,-55.68,98.35,30.60
148137,-0.07,-0.52,0.96,15.48,-57.48,102.29,30.60
148147,-0.07,-0.51,0.94,7.54,-49.30,107.02,30.69
148157,-0.08,-0.55,0.97,0.81,-42.85,112.81,30.60
148167,-0.07,-0.60,1.02,0.14,-42.21,116.87,30.69
148177,-0.07,-0.64,1.09,0.75,-50.93,116.23,30.55
148187,-0.06,-0.65,1.10,3.80,-66.31,114.41,30.60
148197,-0.01,-0.66,1.14,8.44,-82.99,110.20,30.65
148207,0.06,-0.68,1.15,14.24,-104.32,104.78,30.65
148217,0.17,-0.66,1.08,15.97,-113.56,98.90,30.55
148227,0.24,-0.64,0.99,15.76,-118.15,95.62,30.55
148237,0.34,-0.63,0.90,15.56,-109.05,95.37,30.65
148247,0.41,-0.64,0.88,15.33,-91.47,92.99,30.74
148257,0.41,-0.64,0.89,15.37,-78.72,86.66,30.55
148267,0.37,-0.62,0.86,14.64,-73.85,80.82,30.51
148277,0.34,-0.57,0.82,18.23,-74.50,76.31,30.60
148287,0.31,-0.55,0.79,19.53,-74.27,73.39,30.51
148297,0.31,-0.55,0.78,17.11,-75.28,69.69,30.69
148307,0.29,-0.51,0.77,12.47,-72.20,64.72,30.65
148317,0.26,-0.50,0.76,11.25,-67.34,65.73,30.60
148327,0.26,-0.49,0.78,14.73,-63.07,69.04,30.55
148337,0.27,-0.50,0.79,19.18,-57.62,71.69,30.65
148347,0.27,-0.50,0.77,23.73,-48.99,78.41,30.65
148357,0.31,-0.49,0.77,27.62,-42.46,82.55,30.65
148367,0.35,-0.49,0.76,30.78,-44.17,75.50,30.55
148377,0.35,-0.46,0.72,25.50,-48.34,64.15,30.55
148387,0.29,-0.38,0.66,17.08,-49.21,58.82,30.60
148397,0.26,-0.34,0.65,13.68,-45.13,61.27,30.60
148407,0.22,-0.34,0.70,14.24,-34.90,68.11,30.60
148417,0.19,-0.38,0.75,14.38,-25.92,77.30,30.69
148427,0.19,-0.41,0.79,15.08,-21.60,84.85,30.51
148437,0.23,-0.47,0.82,16.64,-23.82,87.71,30.65
148447,0.26,-0.49,0.83,18.55,-31.45,82.90,30.51
148457,0.30,-0.43,0.78,21.77,-34.96,78.44,30.55
148467,0.31,-0.37,0.68,25.83,-28.96,80.99,30.55
148477,0.34,-0.35,0.63,24.87,-12.40,86.75,30.55
148487,0.33,-0.35,0.64,21.08,1.11,90.53,30.65
148497,0.31,-0.36,0.67,14.06,9.51,92.02,30.55
148507,0.26,-0.40,0.74,7.85,5.27,89.31,30.65
148517,0.22,-0.43,0.81,4.15,-10.92,82.03,30.60
148527,0.17,-0.40,0.84,1.30,-32.95,74.18,30.51
148537,0.14,-0.38,0.81,0.00,-50.70,70.58,30.60
148547,0.18,-0.36,0.76,-0.69,-62.09,74.50,30.51
148557,0.22,-0.30,0.68,0.05,-59.05,82.20,30.60
148567,0.29,-0.33,0.66,-0.93,-50.53,93.63,30.55
148577,0.35,-0.36,0.67,-2.60,-38.52,100.93,30.55
148587,0.38,-0.40,0.71,-7.22,-31.07,103.97,30.55
148597,0.39,-0.45,0.76,-9.01,-29.57,103.21,30.65
148607,0.37,-0.50,0.82,-8.18,-35.68,99.05,30.55
148617,0.31,-0.49,0.84,-6.29,-46.31,93.85,30.55
148627,0.27,-0.46,0.77,-2.69,-56.11,92.89,30.55
148637,0.28,-0.43,0.69,-0.52,-67.57,93.30,30.51
148647,0.36,-0.37,0.59,-6.49,-74.50,93.16,30.60
148657,0.40,-0.35,0.55,-18.17,-84.02,88.20,30.51
148667,0.48,-0.35,0.52,-27.63,-88.09,83.88,30.60
148677,0.52,-0.41,0.46,-35.82,-81.98,83.92,30.60
148687,0.59,-0.48,0.50,-37.97,-67.05,86.66,30.51
148697,0.62,-0.50,0.63,-35.62,-51.94,87.42,30.55
148707,0.63,-0.53,0.74,-32.41,-40.44,86.82,30.55
148717,0.64,-0.54,0.85,-29.56,-34.15,84.70,30.65
148727,0.63,-0.56,0.90,-26.35,-27.53,83.15,30.55
148737,0.63,-0.62,0.98,-19.91,-22.00,80.98,30.55
148747,0.62,-0.69,1.01,-13.76,-12.78,76.11,30.65
148757,0.57,-0.75,1.06,-10.21,-13.31,66.11,30.55
148767,0.53,-0.71,1.08,-8.61,-15.10,57.37,30.60
148777,0.44,-0.70,1.10,-4.89,-24.34,50.02,30.60
148787,0.38,-0.59,1.06,-0.11,-27.53,49.21,30.60
148797,0.33,-0.47,1.00,2.38,-25.10,61.77,30.69
148807,0.38,-0.45,0.98,6.23,-22.61,77.86,30.60
148817,0.46,-0.55,0.97,-2.03,-17.82,84.61,30.69
148827,0.50,-0.63,1.05,-10.03,-21.71,81.45,30.65
148837,0.51,-0.70,1.13,-11.95,-36.26,71.05,30.55
148847,0.51,-0.76,1.13,-12.50,-49.22,57.16,30.55
148857,0.49,-0.76,1.15,-4.55,-64.06,41.33,30.65
148867,0.45,-0.68,1.06,2.89,-67.11,31.54,30.55
148877,0.43,-0.62,0.98,9.36,-72.58,29.24,30.65
148887,0.42,-0.60,0.87,13.94,-68.44,32.96,30.51
148897,0.45,-0.58,0.78,14.95,-58.90,34.34,30.60
148907,0.42,-0.52,0.78,9.68,-54.92,32.89,30.60
148917,0.38,-0.46,0.78,5.56,-57.57,33.54,30.51
148927,0.39,-0.44,0.77,4.21,-58.27,37.30,30.60
148937,0.41,-0.44,0.75,4.95,-52.95,44.52,30.60
148947,0.46,-0.45,0.71,10.90,-38.24,56.75,30.65
148957,0.58,-0.47,0.62,18.56,-10.90,71.34,30.55
148967,0.68,-0.57,0.53,28.27,30.14,82.43,30.55
148977,0.77,-0.67,0.42,41.86,82.03,87.04,30.55
148987,0.79,-0.82,0.31,56.76,131.77,77.15,30.46
148997,0.70,-0.54,0.43,55.77,148.99,42.23,30.55
149007,0.43,-0.37,0.52,29.57,122.21,7.42,30.60
149017,0.20,-0.30,0.63,-0.34,73.07,-18.20,30.60
149027,0.04,-0.23,0.76,-20.38,24.92,-30.84,30.51
149037,-0.07,-0.26,0.94,-29.39,-9.66,-21.71,30.51
149047,-0.15,-0.35,1.12,-25.22,-33.53,0.24,30.55
149057,-0.13,-0.47,1.24,-11.22,-51.19,25.42,30.51
149067,-0.01,-0.58,1.26,7.44,-63.27,44.61,30.55
149077,0.20,-0.60,1.17,19.08,-62.85,58.73,30.55
149087,0.33,-0.72,1.04,27.24,-46.82,68.23,30.55
149097,0.52,-0.56,1.08,36.31,-23.44,67.94,30.65
149107,0.55,-0.52,1.05,24.41,-10.93,59.65,30.65
149117,0.55,-0.46,1.08,15.19,-16.84,48.66,30.55
149127,0.55,-0.44,1.03,7.08,-24.15,38.64,30.60
149137,0.55,-0.42,0.98,-0.64,-28.38,34.73,30.60
149147,0.56,-0.48,0.93,-4.75,-20.58,33.51,30.60
149157,0.56,-0.54,0.90,-7.44,-7.94,30.81,30.60
149167,0.53,-0.55,0.94,-12.95,3.31,25.98,30.60
149177,0.47,-0.57,0.99,-17.02,10.79,21.92,30.65
149187,0.42,-0.57,1.06,-15.50,2.21,15.83,30.55
149197,0.38,-0.55,1.06,-12.64,-8.06,13.30,30.55
149207,0.39,-0.53,1.05,-8.20,-15.48,12.29,30.55
149217,0.42,-0.51,1.00,-6.03,-13.15,12.92,30.55
149227,0.47,-0.52,0.94,-5.69,-10.43,11.51,30.55
149237,0.48,-0.51,0.92,-8.93,-6.92,10.73,30.60
149247,0.50,-0.52,0.90,-11.10,-3.19,8.29,30.60
149257,0.48,-0.54,0.92,-12.93,-0.17,3.37,30.60
149267,0.44,-0.52,0.93,-13.07,0.06,-0.73,30.65
149277,0.40,-0.52,0.91,-13.25,-1.19,-3.45,30.60
149287,0.37,-0.51,0.92,-12.11,-4.17,-3.59,30.55
149297,0.37,-0.51,0.92,-10.29,-6.56,-1.92,30.55
149307,0.39,-0.52,0.91,-7.11,-5.07,0.85,30.65
149317,0.40,-0.54,0.89,-4.49,-1.22,0.44,30.46
149327,0.42,-0.52,0.87,-4.37,2.41,-0.90,30.55
149337,0.41,-0.50,0.86,-5.91,4.50,-1.98,30.65
149347,0.42,-0.48,0.88,-7.77,5.05,-3.19,30.55
149357,0.41,-0.50,0.91,-9.36,5.80,-5.02,30.60
149367,0.41,-0.51,0.90,-9.16,6.35,-6.17,30.60
149377,0.40,-0.50,0.92,-7.57,7.88,-6.24,30.60
149387,0.39,-0.52,0.93,-5.51,7.79,-6.92,30.60
149397,0.40,-0.51,0.92,-3.92,9.60,-6.06,30.55
149407,0.41,-0.52,0.91,-2.41,11.74,-5.95,30.60
149417,0.42,-0.53,0.90,-0.93,16.21,-6.47,30.65
149427,0.42,-0.51,0.91,1.07,19.21,-7.66,30.55
149437,0.41,-0.51,0.92,1.31,20.09,-9.16,30.74
149447,0.41,-0.51,0.94,0.29,15.51,-10.32,30.65
149457,0.42,-0.51,0.93,-0.87,11.24,-11.16,30.55
149467,0.43,-0.52,0.94,-0.89,7.45,-11.07,30.65
149477,0.47,-0.53,0.92,0.61,7.94,-10.90,30.55
149487,0.51,-0.53,0.90,1.66,10.50,-12.03,30.51
149497,0.53,-0.53,0.88,2.84,14.70,-12.49,30.60
149507,0.54,-0.54,0.88,5.27,19.50,-12.52,30.60
149517,0.57,-0.57,0.86,7.16,24.87,-14.46,30.51
149527,0.58,-0.60,0.82,8.49,27.28,-19.19,30.55
149537,0.58,-0.57,0.80,8.46,29.39,-25.71,30.60
149547,0.55,-0.55,0.78,5.04,29.62,-32.70,30.60
149557,0.50,-0.55,0.81,3.27,28.82,-37.57,30.65
149567,0.48,-0.55,0.83,3.31,30.87,-40.58,30.65
149577,0.46,-0.53,0.85,3.69,31.31,-41.71,30.55
149587,0.44,-0.52,0.86,4.29,31.04,-40.15,30.65
149597,0.47,-0.51,0.86,4.84,31.89,-38.14,30.65
149607,0.51,-0.52,0.84,4.90,34.87,-37.44,30.55
149617,0.55,-0.53,0.83,4.40,40.21,-38.90,30.60
149627,0.56,-0.55,0.80,3.71,46.52,-42.58,30.60
149637,0.53,-0.55,0.81,2.27,49.63,-47.07,30.60
149647,0.49,-0.54,0.81,0.63,51.18,-50.87,30.69
149657,0.44,-0.53,0.83,-2.03,49.85,-54.41,30.51
149667,0.41,-0.51,0.83,-4.84,48.03,-55.28,30.60
149677,0.04,-0.31,0.75,-24.00,62.92,-49.01,30.51
149687,0.21,-0.52,0.90,-5.21,59.94,-43.39,30.51
149697,0.32,-0.49,0.88,-3.69,65.47,-46.46,30.65
149707,0.29,-0.49,0.94,10.93,57.56,-42.43,30.46
149717,0.29,-0.57,0.89,-7.69,50.02,-49.65,30.55
149727,0.30,-0.58,0.90,-17.37,45.10,-60.20,30.65
149737,0.20,-0.61,0.95,-2.81,25.08,-75.11,30.65
149747,1.08,-0.53,0.79,7.85,56.15,-34.27,30.74
149757,0.26,-0.64,0.77,3.54,17.19,-51.94,30.55
149767,0.19,-0.64,1.00,-6.49,43.68,-72.96,30.69
149777,0.26,-0.53,0.90,2.95,55.77,-70.47,30.69
149787,0.31,-0.48,0.99,6.38,66.55,-67.83,30.60
149797,0.27,-0.50,1.03,23.19,50.35,-54.63,30.60
149807,0.16,-0.57,1.04,2.15,59.53,-68.92,30.60
149817,0.07,-0.62,1.07,7.42,47.30,-60.46,30.60
149827,0.19,-0.54,1.06,10.95,59.27,-55.16,30.65
149837,0.22,-0.54,1.09,8.56,66.06,-59.62,30.65
149847,0.25,-0.58,1.06,17.11,52.02,-63.07,30.65
149857,0.30,-0.53,0.95,14.70,59.21,-66.85,30.55
149867,0.30,-0.56,0.96,16.20,58.46,-69.45,30.55
149877,0.31,-0.53,0.90,10.26,61.11,-73.30,30.65
149887,0.28,-0.54,0.87,9.59,64.60,-75.31,30.55
149897,0.26,-0.54,0.85,11.98,65.63,-77.15,30.65
149907,0.23,-0.53,0.85,11.37,68.00,-80.03,30.65
149917,0.20,-0.52,0.85,11.31,67.68,-81.85,30.60
149927,0.19,-0.50,0.84,9.89,72.89,-80.52,30.60
149937,0.17,-0.51,0.84,7.88,74.27,-78.67,30.69
149947,0.15,-0.54,0.87,6.24,70.00,-80.05,30.69
149957,0.16,-0.56,0.89,6.73,63.16,-83.83,30.60
149967,0.14,-0.55,0.89,7.59,54.24,-87.16,30.69
149977,0.14,-0.54,0.89,8.05,49.66,-89.24,30.60
149987,0.17,-0.52,0.86,8.92,52.61,-88.50,30.60
149997,0.16,-0.52,0.88,8.56,58.76,-87.51,30.65
150007,0.16,-0.53,0.90,8.81,61.76,-86.12,30.65
150017,0.16,-0.53,0.92,8.26,62.08,-88.49,30.65
150027,0.14,-0.57,0.93,7.59,57.11,-93.53,30.55
150037,0.10,-0.55,0.96,7.11,44.12,-99.39,30.55
150047,0.06,-0.54,0.96,4.11,27.83,-107.40,30.65
150057,-0.02,-0.51,0.98,-3.27,4.34,-115.44,30.55
150067,-0.04,-0.47,0.97,-12.40,-10.70,-119.68,30.60
150077,-0.06,-0.41,0.99,-18.05,-20.75,-115.08,30.69
150087,-0.02,-0.43,0.98,-18.38,-17.65,-104.14,30.60
150097,0.05,-0.47,1.01,-18.95,-7.50,-94.06,30.60
150107,0.11,-0.54,1.05,-17.88,1.30,-91.01,30.69
150117,0.20,-0.61,1.05,-11.86,10.12,-90.76,30.60
150127,0.21,-0.64,1.08,-3.01,20.81,-95.60,30.65
150137,0.22,-0.62,1.00,6.46,34.81,-95.16,30.65
150147,0.20,-0.60,0.98,15.60,46.27,-97.91,30.65
150157,0.18,-0.55,0.93,19.47,54.44,-98.53,30.65
150167,0.11,-0.54,0.88,17.24,56.72,-100.79,30.65
150177,0.06,-0.48,0.85,15.15,53.60,-102.95,30.55
150187,0.02,-0.46,0.87,14.56,45.31,-105.53,30.65
150197,0.03,-0.37,0.78,9.54,51.57,-103.25,30.60
150207,-0.03,-0.39,0.79,4.17,49.74,-101.86,30.60
150217,-0.06,-0.39,0.84,-1.02,44.14,-98.61,30.60
150227,-0.06,-0.41,0.88,-1.65,39.97,-94.61,30.60
150237,-0.04,-0.45,0.89,-2.67,35.36,-94.53,30.60
150247,-0.02,-0.44,0.86,-3.05,30.20,-94.75,30.60
150257,-0.00,-0.42,0.84,-2.76,32.23,-94.27,30.55
150267,0.02,-0.39,0.81,-1.21,40.85,-92.02,30.65
150277,0.02,-0.38,0.80,-2.56,53.30,-88.98,30.65
150287,-0.01,-0.38,0.85,-3.42,62.20,-87.88,30.65
150297,-0.06,-0.37,0.91,-0.63,66.56,-84.82,30.55
150307,-0.09,-0.38,0.96,5.30,64.17,-82.81,30.55
150317,-0.07,-0.38,0.93,9.94,68.96,-76.60,30.65
150327,-0.07,-0.37,0.92,13.94,70.84,-71.97,30.69
150337,-0.04,-0.35,0.86,19.04,80.00,-67.98,30.60
150347,-0.10,-0.37,0.87,20.12,87.89,-66.17,30.60
150357,-0.15,-0.36,0.88,20.31,90.41,-64.50,30.69
150367,-0.20,-0.33,0.89,17.04,85.28,-62.38,30.60
150377,-0.22,-0.29,0.88,9.27,75.19,-60.43,30.69
150387,-0.19,-0.30,0.89,1.02,63.25,-58.26,30.74
150397,-0.12,-0.31,0.89,-6.70,53.47,-56.55,30.55
150407,-0.03,-0.34,0.89,-15.04,50.31,-57.50,30.65
150417,0.01,-0.41,0.90,-19.92,45.80,-60.85,30.55
150427,0.06,-0.46,0.95,-20.31,41.56,-65.85,30.65
150437,0.09,-0.50,0.94,-21.97,48.37,-70.96,30.65
150447,0.07,-0.52,1.01,-17.57,56.98,-75.62,30.60
150457,0.04,-0.56,1.06,-9.33,64.47,-79.21,30.69
150467,0.01,-0.56,1.05,-3.74,65.25,-81.95,30.69
150477,-0.03,-0.54,1.05,1.82,58.11,-83.73,30.69
150487,-0.04,-0.51,1.00,5.31,47.47,-83.89,30.60
150497,-0.02,-0.48,0.95,5.08,33.56,-84.73,30.60
150507,0.04,-0.45,0.86,1.34,25.76,-87.42,30.65
150517,0.08,-0.45,0.82,-6.21,25.48,-89.63,30.55
150527,0.11,-0.46,0.83,-9.21,30.78,-91.08,30.65
150537,0.10,-0.48,0.89,-10.14,41.62,-95.89,30.65
150547,0.09,-0.48,0.90,-10.11,59.94,-99.53,30.74
150557,-0.01,-0.54,1.00,-9.44,65.53,-101.85,30.55
150567,-0.09,-0.57,1.04,-6.49,64.84,-104.09,30.65
150577,-0.16,-0.57,1.09,-2.47,51.47,-105.83,30.69
150587,-0.17,-0.52,1.07,-0.66,40.18,-106.67,30.69
150597,-0.19,-0.47,1.02,-1.65,36.06,-106.03,30.69
150607,-0.19,-0.46,1.02,-2.09,39.18,-103.27,30.65
150617,-0.21,-0.45,1.03,0.17,47.11,-98.34,30.60
150627,-0.23,-0.46,1.05,1.66,53.80,-94.20,30.60
150637,-0.26,-0.48,1.08,2.66,53.19,-94.14,30.65
150647,-0.29,-0.51,1.07,6.17,47.21,-93.98,30.65
150657,-0.30,-0.49,1.04,8.40,37.28,-92.40,30.55
150667,-0.29,-0.48,1.00,11.86,27.48,-93.37,30.74
150677,-0.27,-0.42,0.94,8.98,23.91,-92.93,30.55
150687,-0.25,-0.40,0.89,5.34,28.96,-88.87,30.65
150697,-0.22,-0.40,0.91,4.24,40.18,-85.15,30.69
150707,-0.20,-0.43,0.94,4.44,52.50,-83.16,30.60
150717,-0.22,-0.47,0.98,4.37,58.60,-84.08,30.60
150727,-0.25,-0.50,1.02,4.95,53.69,-86.92,30.69
150737,-0.30,-0.48,1.03,6.56,40.05,-91.51,30.65
150747,-0.36,-0.45,1.04,9.71,32.00,-94.67,30.60
150757,-0.36,-0.39,0.97,10.41,26.46,-89.37,30.65
150767,-0.35,-0.34,0.90,12.03,29.50,-80.02,30.55
150777,-0.30,-0.33,0.87,10.41,40.09,-69.44,30.55
150787,-0.24,-0.33,0.87,6.95,50.53,-62.32,30.55
150797,-0.23,-0.37,0.90,1.56,56.85,-62.40,30.65
150807,-0.25,-0.44,0.94,-1.53,54.79,-67.24,30.65
150817,-0.32,-0.43,0.96,0.12,48.61,-71.63,30.60
150827,-0.38,-0.42,0.97,1.56,41.31,-72.56,30.60
150837,-0.44,-0.39,1.01,3.36,28.98,-71.63,30.60
150847,-0.46,-0.36,1.01,3.98,21.47,-67.19,30.69
150857,-0.43,-0.33,0.95,4.09,19.83,-58.26,30.60
150867,-0.38,-0.31,0.93,4.69,25.42,-49.10,30.55
150877,-0.33,-0.33,0.93,2.63,32.23,-44.84,30.55
150887,-0.34,-0.38,0.95,-0.14,32.03,-46.34,30.65
150897,-0.39,-0.40,0.98,-1.28,25.45,-49.50,30.65
150907,-0.45,-0.38,1.00,1.16,16.79,-50.61,30.55
150917,-0.51,-0.36,1.00,2.23,9.50,-48.14,30.65
150927,-0.53,-0.33,0.95,2.96,5.21,-41.60,30.55
150937,-0.51,-0.28,0.91,1.48,8.79,-30.03,30.69
150947,-0.46,-0.28,0.89,0.37,11.21,-20.12,30.60
150957,-0.43,-0.28,0.90,-4.20,6.31,-16.64,30.69
150967,-0.41,-0.29,0.93,-9.34,1.53,-19.13,30.69
150977,-0.43,-0.31,0.96,-15.62,-14.69,-22.20,30.69
150987,-0.42,-0.30,0.96,-16.58,-28.17,-21.91,30.60
150997,-0.38,-0.29,0.89,-14.98,-23.53,-15.53,30.74
151007,-0.33,-0.30,0.88,-16.08,-10.85,-6.18,30.65
151017,-0.28,-0.32,0.90,-18.09,4.41,-1.37,30.65
151027,-0.27,-0.35,0.94,-21.86,11.79,-1.62,30.65
151037,-0.26,-0.37,0.99,-24.37,9.68,-5.44,30.65
151047,-0.28,-0.36,1.01,-24.32,3.53,-7.76,30.74
151057,-0.28,-0.36,1.03,-22.47,-3.07,-8.56,30.60
151067,-0.27,-0.38,1.04,-19.44,-4.78,-7.50,30.69
151077,-0.27,-0.41,1.07,-18.96,-4.85,-6.72,30.69
151087,-0.28,-0.42,1.10,-18.24,-7.19,-5.18,30.51
151097,-0.25,-0.42,1.12,-15.66,-11.66,-4.06,30.69
151107,-0.22,-0.43,1.10,-11.73,-19.77,-3.11,30.60
151117,-0.16,-0.39,1.06,-8.06,-26.96,-2.92,30.60
151127,-0.06,-0.36,0.99,-5.73,-26.29,-3.71,30.65
151137,-0.04,-0.35,0.96,-9.25,-18.50,-6.43,30.65
151147,-0.11,-0.33,0.92,-10.37,-0.24,-7.36,30.55
151157,-0.25,-0.35,0.96,-12.84,17.28,-5.66,30.65
151167,-0.36,-0.38,1.09,-13.28,18.40,-3.44,30.65
151177,-0.45,-0.38,1.14,-13.30,5.10,-1.88,30.69
151187,-0.45,-0.38,1.13,-8.27,-12.43,1.21,30.69
151197,-0.36,-0.36,1.04,-4.11,-19.53,6.15,30.60
151207,-0.26,-0.37,0.99,-1.76,-19.15,11.60,30.69
151217,-0.14,-0.37,0.98,-2.69,-15.24,12.55,30.65
151227,-0.07,-0.38,0.98,-4.84,-12.09,10.92,30.60
151237,-0.01,-0.41,0.98,-5.80,-12.03,7.19,30.65
151247,-0.01,-0.42,1.02,-7.57,-6.58,2.61,30.55
151257,-0.05,-0.42,1.06,-4.84,-5.86,-2.38,30.65
151267,-0.07,-0.41,1.07,-2.66,-5.88,-5.97,30.65
151277,-0.12,-0.38,1.07,-0.53,-5.59,-7.13,30.65
151287,-0.14,-0.37,1.06,1.16,-2.87,-5.54,30.65
151297,-0.15,-0.35,1.01,2.95,1.22,-1.98,30.60
151307,-0.14,-0.33,1.00,2.38,2.38,0.98,30.69
151317,-0.12,-0.33,0.97,1.56,0.76,2.95,30.60
151327,-0.10,-0.33,0.96,-0.29,-1.30,3.98,30.60
151337,-0.07,-0.33,0.95,-2.52,-3.65,3.83,30.69
151347,-0.04,-0.33,0.96,-4.44,-4.34,2.93,30.65
151357,-0.04,-0.34,0.97,-6.05,-7.04,0.43,30.65
151367,-0.04,-0.35,0.99,-7.62,-2.34,-1.19,30.65
151377,-0.07,-0.36,1.01,-5.34,-1.83,-2.24,30.55
151387,-0.08,-0.37,1.01,-4.81,1.18,-2.06,30.74
151397,-0.09,-0.37,1.00,-2.17,3.53,-1.68,30.55
151407,-0.11,-0.36,1.00,0.50,3.34,-2.29,30.65
151417,-0.11,-0.38,0.99,-0.69,3.33,-2.21,30.60
151427,-0.12,-0.36,0.99,-2.70,-1.86,-3.53,30.60
151437,-0.12,-0.35,0.99,-2.81,-5.68,-3.56,30.60
151447,-0.11,-0.33,0.95,-2.95,-7.59,-1.65,30.60
151457,-0.09,-0.33,0.93,-4.70,-5.80,-0.70,30.60
151467,-0.07,-0.35,0.95,-6.53,-4.12,-0.08,30.69
151477,-0.08,-0.36,0.99,-7.39,-3.68,-0.37,30.65
151487,-0.09,-0.35,0.98,-7.94,-4.67,-0.46,30.65
151497,-0.09,-0.36,1.00,-7.25,-6.38,0.32,30.65
151507,-0.06,-0.37,0.97,-5.11,-4.67,1.05,30.65
151517,-0.05,-0.37,0.97,-5.83,-3.39,1.34,30.65
151527,-0.05,-0.37,0.98,-7.48,-4.40,-0.26,30.65
151537,-0.06,-0.38,0.98,-8.32,-4.72,-1.13,30.65
151547,-0.08,-0.36,0.98,-6.81,-4.09,-2.06,30.60
151557,-0.10,-0.36,0.98,-6.89,-2.60,-1.62,30.60
151567,-0.10,-0.36,0.99,-7.27,-3.16,-1.18,30.60
151577,-0.11,-0.37,1.00,-7.45,-3.68,-0.58,30.69
151587,-0.11,-0.37,1.00,-7.88,-4.49,0.23,30.60
151597,-0.10,-0.38,1.01,-7.24,-6.32,0.34,30.79
151607,-0.10,-0.37,1.00,-6.26,-8.00,0.14,30.65
151617,-0.08,-0.37,0.98,-6.85,-7.39,0.09,30.55
151627,-0.06,-0.38,1.00,-5.69,-5.80,0.29,30.65
151637,-0.06,-0.40,1.00,-4.73,-3.45,-0.70,30.65
151647,-0.07,-0.40,1.00,-3.76,-2.53,-2.27,30.65
151657,-0.08,-0.39,0.99,-3.85,-2.58,-3.53,30.65
151667,-0.09,-0.37,0.99,-3.51,-3.92,-4.60,30.65
151677,-0.11,-0.36,0.99,-3.34,-4.69,-4.44,30.69
151687,-0.11,-0.36,0.98,-3.57,-4.14,-3.85,30.69
151697,-0.12,-0.37,1.00,-4.03,-3.51,-3.36,30.69
151707,-0.11,-0.37,1.01,-4.50,-4.35,-3.21,30.69
151717,-0.10,-0.37,1.00,-4.49,-4.56,-2.85,30.60
151727,-0.09,-0.38,1.01,-3.36,-4.82,-2.12,30.55
151737,-0.08,-0.39,1.01,-2.96,-4.90,-2.02,30.65
151747,-0.07,-0.38,1.03,-2.92,-5.66,-2.21,30.55
151757,-0.06,-0.39,1.03,-2.21,-5.82,-2.20,30.65
151767,-0.04,-0.38,1.01,-1.65,-5.01,-3.02,30.74
151777,-0.04,-0.39,1.01,-1.98,-3.56,-3.89,30.74
151787,-0.04,-0.38,1.01,-1.50,-1.73,-4.27,30.69
151797,-0.05,-0.39,1.02,-1.65,-0.55,-4.17,30.60
151807,-0.06,-0.39,1.03,-0.95,-0.79,-3.39,30.69
151817,-0.06,-0.38,1.02,-0.92,-1.10,-2.82,30.60
151827,-0.06,-0.37,1.02,-0.79,-1.83,-2.34,30.65
151837,-0.06,-0.38,1.02,-1.45,-2.50,-2.69,30.60
151847,-0.04,-0.37,1.01,-1.59,-3.45,-2.49,30.65
151857,-0.04,-0.38,0.99,-1.76,-2.93,-2.53,30.65
151867,-0.04,-0.37,0.99,-2.35,-2.14,-2.64,30.65
151877,-0.04,-0.38,1.00,-1.82,-1.66,-2.00,30.65
151887,-0.05,-0.39,1.01,-1.66,-1.42,-1.92,30.74
151897,-0.05,-0.39,1.01,-1.53,-2.20,-2.50,30.55
151907,-0.05,-0.37,1.01,-1.19,-4.53,-3.13,30.69
151917,-0.04,-0.36,0.97,-1.24,-4.46,-2.50,30.60
151927,-0.04,-0.35,0.96,-3.01,-2.95,-1.80,30.60
151937,-0.04,-0.36,0.97,-4.15,-1.18,-1.54,30.60
151947,-0.03,-0.37,0.96,-5.30,-0.06,-2.05,30.60
151957,-0.04,-0.37,0.97,-6.43,-0.40,-2.63,30.74
151967,-0.05,-0.37,0.98,-6.43,-1.27,-2.79,30.60
151977,-0.06,-0.37,0.99,-6.46,-1.24,-2.72,30.65
151987,-0.07,-0.38,1.00,-5.79,-1.76,-3.50,30.55
151997,-0.07,-0.39,0.99,-5.66,-3.66,-3.77,30.65
152007,-0.07,-0.37,0.98,-5.86,-5.02,-3.63,30.65
152017,-0.08,-0.36,0.99,-5.80,-7.73,-3.16,30.65
152027,-0.08,-0.36,0.97,-6.34,-10.92,-2.18,30.65
152037,-0.05,-0.36,0.97,-6.67,-13.24,-1.80,30.60
152047,-0.03,-0.37,0.97,-8.05,-13.97,-2.09,30.69
152057,-0.00,-0.38,0.96,-8.44,-11.57,-1.73,30.69
152067,0.02,-0.39,0.97,-8.18,-4.41,-1.16,30.69
152077,0.03,-0.41,1.00,-7.50,1.13,-0.98,30.69
152087,0.00,-0.40,1.03,-7.02,4.79,-1.71,30.65
152097,-0.02,-0.41,1.07,-6.70,3.88,-2.73,30.69
152107,-0.04,-0.40,1.07,-5.54,1.15,-3.37,30.55
152117,-0.05,-0.39,1.07,-3.30,-1.51,-3.02,30.65
152127,-0.05,-0.39,1.06,-1.91,-3.28,-1.53,30.65
152137,-0.03,-0.37,1.01,-1.40,-4.32,-0.38,30.55
152147,-0.01,-0.37,0.98,-1.89,-4.53,-0.09,30.55
152157,0.00,-0.37,0.95,-3.80,-2.69,-0.52,30.65
152167,0.00,-0.37,0.95,-4.93,-1.18,-1.31,30.60
152177,-0.01,-0.37,0.95,-5.76,0.75,-1.89,30.51
152187,-0.02,-0.37,0.98,-6.76,0.73,-1.89,30.60
152197,-0.04,-0.37,0.99,-7.27,0.69,-1.11,30.69
152207,-0.04,-0.37,1.00,-7.37,0.55,-0.26,30.69
152217,-0.03,-0.37,1.01,-7.22,0.81,0.78,30.65
152227,-0.03,-0.39,1.00,-6.87,0.49,1.08,30.74
152237,-0.02,-0.39,1.01,-7.10,-0.52,1.05,30.65
152247,-0.02,-0.38,1.00,-7.08,-1.92,0.37,30.65
152257,-0.01,-0.39,1.00,-5.94,-2.03,-0.37,30.65
152267,-0.02,-0.39,1.00,-5.27,-1.59,-0.67,30.55
152277,-0.02,-0.38,0.97,-4.70,-0.63,-0.61,30.55
152287,-0.02,-0.38,0.96,-5.19,1.82,0.20,30.60
152297,-0.01,-0.38,0.97,-6.08,2.85,0.24,30.69
152307,-0.03,-0.38,0.98,-7.04,2.56,0.27,30.69
152317,-0.03,-0.38,0.99,-7.51,0.72,-0.11,30.60
152327,-0.04,-0.38,0.97,-7.65,-1.22,-0.14,30.69
152337,-0.04,-0.38,0.98,-8.63,-2.06,-0.15,30.60
152347,-0.03,-0.37,0.97,-9.16,-3.21,0.34,30.55
152357,-0.03,-0.37,0.96,-9.05,-2.66,1.11,30.65
152367,-0.00,-0.38,0.96,-9.51,0.27,1.07,30.55
152377,-0.00,-0.38,0.97,-9.74,3.80,1.18,30.74
152387,-0.02,-0.39,0.98,-9.98,5.50,1.01,30.65
152397,-0.02,-0.39,0.99,-9.71,5.57,0.82,30.55
152407,-0.03,-0.39,1.01,-9.18,4.08,0.02,30.55
152417,-0.05,-0.39,1.03,-9.18,0.34,-0.21,30.69
152427,-0.04,-0.38,1.02,-8.55,-1.54,0.27,30.51
152437,-0.02,-0.38,0.99,-7.92,-0.99,1.15,30.60
152447,-0.01,-0.39,1.00,-8.93,-0.14,1.21,30.60
152457,-0.00,-0.40,1.00,-9.13,-0.43,0.72,30.60
152467,-0.00,-0.39,1.01,-9.71,0.15,0.34,30.69
152477,-0.01,-0.39,1.01,-9.18,0.76,0.00,30.65
152487,-0.02,-0.40,1.03,-7.54,1.22,-0.63,30.65
