Millis,Acce_X,Acce_Y,Acce_Z,Gyro_X,Gyro_Y,Gyro_Z,Temp
49477,-0.26,-0.73,1.09,-5.01,11.73,-16.81,31.73
49487,-0.29,-0.70,1.07,4.69,6.84,-9.54,31.97
49497,-0.24,-0.64,1.00,9.54,7.04,-3.01,31.78
49507,-0.23,-0.61,0.95,11.22,3.86,1.97,31.78
49517,-0.19,-0.58,0.93,6.84,1.48,4.53,31.78
49527,-0.18,-0.58,0.90,3.57,-3.19,4.67,31.87
49537,-0.17,-0.59,0.89,1.98,-9.92,4.37,31.68
49547,-0.14,-0.60,0.89,1.50,-15.48,3.95,31.78
49557,-0.13,-0.60,0.90,1.86,-18.61,3.85,31.78
49567,-0.11,-0.61,0.90,3.60,-19.54,4.78,31.78
49577,-0.12,-0.60,0.89,5.13,-17.65,7.71,31.82
49587,-0.13,-0.61,0.92,6.47,-13.59,12.92,31.82
49597,-0.16,-0.63,0.95,10.03,-6.26,19.45,31.73
49607,-0.20,-0.64,1.00,14.11,-1.53,28.00,31.92
49617,-0.24,-0.65,1.04,19.30,-0.29,34.93,31.82
49627,-0.27,-0.64,1.07,25.82,-9.48,39.54,31.82
49637,-0.28,-0.62,1.03,28.95,-22.69,40.05,31.78
49647,-0.26,-0.60,0.97,30.34,-36.23,39.47,31.82
49657,-0.25,-0.56,0.93,30.61,-47.18,38.08,31.92
49667,-0.25,-0.53,0.88,24.37,-54.96,37.47,31.78
49677,-0.26,-0.55,0.89,19.40,-54.18,42.60,31.78
49687,-0.31,-0.54,0.94,18.14,-52.99,50.06,31.78
49697,-0.33,-0.56,0.98,26.09,-40.87,60.81,31.78
49707,-0.36,-0.55,0.98,32.70,-35.22,70.99,31.87
49717,-0.37,-0.55,0.98,34.29,-33.94,77.91,31.87
49727,-0.37,-0.55,0.98,34.09,-39.51,78.50,31.78
49737,-0.38,-0.53,0.96,28.27,-51.34,74.66,31.78
49747,-0.38,-0.50,0.93,20.12,-64.66,70.64,31.82
49757,-0.39,-0.48,0.88,13.51,-75.10,69.60,31.82
49767,-0.38,-0.46,0.84,8.26,-80.63,73.62,31.82
49777,-0.34,-0.46,0.82,4.67,-79.39,81.34,31.82
49787,-0.32,-0.48,0.84,1.02,-75.15,91.50,31.92
49797,-0.29,-0.53,0.86,-1.40,-68.02,101.57,31.73
49807,-0.26,-0.57,0.91,-1.80,-62.87,110.02,31.78
49817,-0.25,-0.63,0.97,0.03,-61.13,115.16,31.82
49827,-0.24,-0.67,1.00,3.34,-63.86,116.75,31.87
49837,-0.21,-0.68,1.00,5.80,-75.48,114.60,31.78
49847,-0.18,-0.68,0.96,5.47,-89.04,109.65,31.87
49857,-0.14,-0.68,0.94,3.68,-103.15,103.42,31.78
49867,-0.10,-0.67,0.91,3.10,-112.64,99.11,31.87
49877,-0.03,-0.67,0.87,5.18,-112.05,98.38,31.87
49887,0.02,-0.64,0.83,6.75,-105.63,101.80,31.78
49897,0.04,-0.64,0.82,8.61,-93.88,109.45,31.78
49907,0.09,-0.63,0.85,13.51,-78.76,116.41,31.82
49917,0.12,-0.65,0.86,17.37,-66.63,120.06,31.92
49927,0.11,-0.66,0.90,17.48,-62.64,118.92,31.82
49937,0.12,-0.69,0.97,20.44,-71.65,112.92,31.82
49947,0.12,-0.70,0.98,18.69,-79.07,101.65,31.82
49957,0.14,-0.67,0.96,16.34,-92.06,90.78,31.82
49967,0.16,-0.67,0.96,13.05,-97.15,82.05,31.73
49977,0.18,-0.66,0.95,13.05,-98.05,75.69,31.78
49987,0.17,-0.65,0.96,15.86,-95.73,70.89,31.78
49997,0.19,-0.63,0.97,20.20,-90.69,64.53,31.87
50007,0.14,-0.59,0.95,22.02,-91.22,55.85,31.87
50017,0.10,-0.56,0.95,24.43,-91.80,46.61,31.78
50027,0.04,-0.50,0.93,25.30,-93.48,39.95,31.87
50037,-0.05,-0.50,0.92,23.98,-93.97,35.92,31.78
50047,-0.09,-0.41,0.89,23.56,-89.42,41.79,31.87
50057,-0.10,-0.35,0.83,26.92,-78.17,54.15,31.87
50067,-0.11,-0.37,0.82,27.42,-62.06,70.49,31.87
50077,-0.12,-0.43,0.85,28.63,-53.45,85.69,31.82
50087,-0.12,-0.49,0.87,29.79,-51.97,95.07,31.82
50097,-0.09,-0.52,0.86,29.30,-57.63,99.08,31.82
50107,-0.05,-0.55,0.84,26.98,-72.43,100.64,31.73
50117,-0.01,-0.55,0.78,22.79,-83.66,99.98,31.73
50127,0.06,-0.55,0.77,19.19,-93.39,98.78,31.73
50137,0.15,-0.55,0.72,15.69,-98.63,101.80,31.82
50147,0.21,-0.56,0.74,13.19,-97.27,104.78,31.87
50157,0.28,-0.60,0.76,13.05,-94.02,106.78,31.73
50167,0.32,-0.64,0.78,14.44,-93.39,105.42,31.78
50177,0.36,-0.68,0.79,14.15,-91.16,101.48,31.87
50187,0.38,-0.72,0.82,17.42,-88.41,94.23,31.78
50197,0.38,-0.69,0.81,21.05,-85.42,90.46,31.78
50207,0.42,-0.65,0.77,24.99,-77.15,89.10,31.78
50217,0.43,-0.62,0.76,28.99,-63.18,90.44,31.78
50227,0.44,-0.61,0.78,33.27,-46.87,93.18,31.78
50237,0.42,-0.61,0.83,36.00,-32.26,93.05,31.78
50247,0.38,-0.61,0.85,37.01,-26.49,89.50,31.68
50257,0.33,-0.61,0.87,39.40,-29.01,82.93,31.82
50267,0.29,-0.57,0.85,38.87,-34.02,76.75,31.82
50277,0.25,-0.54,0.82,38.92,-40.44,74.23,31.82
50287,0.23,-0.52,0.78,38.05,-40.09,76.84,31.73
50297,0.25,-0.51,0.76,37.50,-33.30,83.42,31.73
50307,0.29,-0.48,0.74,36.72,-23.44,90.41,31.82
50317,0.31,-0.47,0.74,34.63,-11.86,95.25,31.78
50327,0.30,-0.47,0.78,30.29,-5.88,96.03,31.73
50337,0.28,-0.49,0.84,25.63,-10.85,89.68,31.78
50347,0.27,-0.47,0.84,21.07,-16.99,81.54,31.78
50357,0.26,-0.47,0.83,16.23,-23.80,74.90,31.78
50367,0.28,-0.48,0.82,16.08,-21.68,74.47,31.78
50377,0.30,-0.47,0.82,18.87,-6.08,78.63,31.87
50387,0.32,-0.50,0.84,22.72,14.12,82.40,31.78
50397,0.29,-0.55,0.90,25.44,24.29,80.66,31.87
50407,0.18,-0.54,0.96,24.98,16.29,72.58,31.78
50417,0.07,-0.53,0.99,20.64,-10.12,60.15,31.78
50427,0.03,-0.47,0.95,14.70,-38.24,51.59,31.87
50437,0.01,-0.38,0.87,6.64,-58.14,53.24,31.73
50447,0.08,-0.38,0.83,-0.14,-61.25,62.73,31.73
50457,0.12,-0.39,0.83,-2.72,-55.83,72.90,31.73
50467,0.17,-0.44,0.83,-5.19,-47.07,79.01,31.82
50477,0.20,-0.47,0.87,-5.73,-36.43,81.34,31.82
50487,0.17,-0.52,0.95,-1.88,-31.39,83.91,31.87
50497,0.15,-0.57,1.01,4.37,-30.21,86.06,31.82
50507,0.12,-0.59,1.05,7.57,-39.11,82.93,31.82
50517,0.12,-0.56,1.00,9.60,-53.04,78.70,31.78
50527,0.15,-0.54,0.92,11.37,-64.67,77.54,31.78
50537,0.20,-0.50,0.87,10.93,-66.49,80.66,31.78
50547,0.25,-0.49,0.81,9.95,-59.02,87.10,31.78
50557,0.31,-0.51,0.79,11.19,-41.71,96.00,31.68
50567,0.33,-0.52,0.84,9.79,-27.92,102.35,31.78
50577,0.33,-0.57,0.90,9.60,-22.82,102.89,31.68
50587,0.30,-0.61,0.94,5.51,-27.45,96.76,31.78
50597,0.30,-0.63,0.99,3.73,-41.13,87.18,31.73
50607,0.29,-0.62,0.96,3.40,-54.26,78.76,31.73
50617,0.31,-0.60,0.93,4.43,-62.92,73.18,31.73
50627,0.31,-0.59,0.89,5.65,-63.59,73.39,31.82
50637,0.31,-0.58,0.88,6.99,-57.91,78.18,31.82
50647,0.30,-0.60,0.90,9.37,-52.61,82.38,31.73
50657,0.31,-0.65,0.88,11.34,-49.85,84.92,31.78
50667,0.31,-0.62,0.90,12.93,-51.77,84.08,31.82
50677,0.36,-0.60,0.84,15.16,-52.90,82.18,31.78
50687,0.37,-0.58,0.77,16.69,-53.57,82.90,31.78
50697,0.39,-0.58,0.71,13.28,-48.89,85.30,31.68
50707,0.40,-0.61,0.68,8.52,-43.74,88.95,31.68
50717,0.39,-0.59,0.66,0.78,-43.01,94.18,31.68
50727,0.42,-0.59,0.66,-7.74,-46.21,97.07,31.68
50737,0.52,-0.57,0.68,-18.64,-49.28,96.34,31.68
50747,0.55,-0.59,0.69,-31.18,-57.45,91.04,31.78
50757,0.57,-0.65,0.72,-38.00,-64.61,86.92,31.82
50767,0.60,-0.71,0.74,-38.21,-62.49,83.57,31.73
50777,0.59,-0.74,0.79,-34.55,-58.79,81.18,31.73
50787,0.58,-0.76,0.83,-28.58,-51.54,77.74,31.73
50797,0.51,-0.79,0.89,-20.76,-42.40,74.79,31.73
50807,0.44,-0.76,0.90,-10.98,-39.44,74.81,31.73
50817,0.36,-0.73,0.95,-1.65,-39.79,73.68,31.73
50827,0.32,-0.71,0.92,9.53,-47.97,70.00,31.78
50837,0.36,-0.64,0.81,17.47,-51.30,66.35,31.78
50847,0.33,-0.55,0.73,12.37,-67.30,56.95,31.87
50857,0.40,-0.46,0.63,2.37,-68.95,48.35,31.68
50867,0.38,-0.41,0.57,-8.11,-68.67,46.61,31.78
50877,0.38,-0.38,0.55,-18.98,-57.04,50.18,31.78
50887,0.38,-0.39,0.58,-28.26,-43.13,56.11,31.78
50897,0.30,-0.46,0.70,-32.08,-44.69,62.72,31.78
50907,0.29,-0.52,0.73,-35.85,-43.02,66.11,31.73
50917,0.28,-0.56,0.80,-37.36,-52.85,65.62,31.82
50927,0.39,-0.61,0.80,-36.76,-54.75,60.21,31.82
50937,0.40,-0.67,0.80,-35.56,-60.52,53.24,31.82
50947,0.42,-0.69,0.77,-33.57,-57.50,49.94,31.73
50957,0.44,-0.70,0.79,-25.05,-44.90,51.13,31.78
50967,0.48,-0.71,0.78,-17.51,-30.69,50.63,31.82
50977,0.46,-0.71,0.77,-11.91,-23.16,46.99,31.82
50987,0.45,-0.68,0.77,-9.33,-20.41,41.59,31.78
50997,0.43,-0.69,0.77,-6.35,-18.98,37.82,31.78
51007,0.39,-0.69,0.76,-7.11,-20.27,34.11,31.78
51017,0.39,-0.71,0.82,-9.16,-17.77,30.41,31.78
51027,0.38,-0.66,0.74,-9.74,-20.27,28.38,31.78
51037,0.39,-0.64,0.72,-9.31,-17.04,25.47,31.68
51047,0.37,-0.63,0.71,-13.27,-26.34,22.05,31.68
51057,0.37,-0.65,0.76,-19.42,-24.06,21.39,31.78
51067,0.39,-0.68,0.77,-20.99,-21.85,21.37,31.82
51077,0.41,-0.70,0.77,-19.98,-11.94,20.64,31.82
51087,0.40,-0.76,0.85,-13.62,-6.35,13.82,31.82
51097,0.44,-0.72,0.81,-9.04,4.87,9.77,31.73
51107,0.44,-0.73,0.80,-3.76,8.24,4.78,31.73
51117,0.45,-0.74,0.80,0.29,12.18,-0.58,31.82
51127,0.43,-0.71,0.82,2.06,14.06,-3.89,31.78
51137,0.43,-0.69,0.85,0.82,14.21,-5.86,31.73
51147,0.41,-0.67,0.89,-1.65,12.69,-6.61,31.64
51157,0.36,-0.66,0.93,-4.60,7.47,-6.53,31.78
51167,0.32,-0.67,0.96,-6.81,-0.03,-4.96,31.78
51177,0.32,-0.67,0.95,-6.75,-7.34,-1.62,31.68
51187,0.36,-0.69,0.91,-3.30,-10.84,0.43,31.78
51197,0.39,-0.71,0.88,-1.07,-12.60,-0.18,31.78
51207,0.40,-0.73,0.84,1.25,-10.32,-1.86,31.78
51217,0.40,-0.73,0.84,5.48,-6.02,-3.31,31.78
51227,0.38,-0.72,0.83,9.10,-1.79,-5.01,31.68
51237,0.37,-0.68,0.82,12.46,1.51,-7.22,31.68
51247,0.34,-0.64,0.80,13.15,3.76,-8.67,31.73
51257,0.31,-0.59,0.75,12.34,3.50,-9.21,31.64
51267,0.30,-0.57,0.73,8.52,2.03,-7.51,31.82
51277,0.29,-0.57,0.71,3.56,-2.56,-4.41,31.73
51287,0.33,-0.55,0.70,-4.03,-2.34,-2.23,31.82
51297,0.33,-0.56,0.73,-9.47,-2.08,-2.20,31.73
51307,0.32,-0.59,0.74,-11.25,-0.29,-1.80,31.73
51317,0.31,-0.61,0.76,-10.23,0.98,-0.69,31.82
51327,0.31,-0.62,0.80,-8.64,2.35,1.60,31.73
51337,0.32,-0.62,0.80,-4.75,4.47,3.11,31.68
51347,0.33,-0.62,0.79,-2.73,5.62,3.51,31.78
51357,0.36,-0.62,0.77,-2.17,5.02,2.72,31.78
51367,0.37,-0.62,0.74,-1.89,5.95,1.27,31.68
51377,0.37,-0.62,0.73,-2.56,7.02,0.47,31.78
51387,0.37,-0.64,0.71,-2.37,9.44,-0.17,31.68
51397,0.36,-0.63,0.72,-2.29,12.40,-1.04,31.78
51407,0.36,-0.62,0.71,-2.78,13.42,-1.89,31.68
51417,0.34,-0.63,0.72,-4.50,12.43,-1.98,31.78
51427,0.34,-0.63,0.72,-6.73,10.32,-2.75,31.82
51437,0.35,-0.62,0.73,-9.45,8.90,-2.76,31.73
51447,0.35,-0.63,0.73,-11.50,8.02,-1.77,31.73
51457,0.37,-0.65,0.75,-12.05,10.34,-0.55,31.82
51467,0.41,-0.67,0.75,-11.59,14.09,-0.47,31.73
51477,0.38,-0.68,0.78,-8.99,15.80,-1.65,31.73
51487,0.40,-0.69,0.77,-7.76,16.75,-2.90,31.73
51497,0.43,-0.70,0.76,-6.49,19.01,-3.91,31.82
51507,0.45,-0.70,0.75,-6.34,20.79,-5.82,31.78
51517,0.47,-0.72,0.74,-7.16,23.28,-9.45,31.73
51527,0.47,-0.73,0.75,-5.91,25.24,-13.33,31.78
51537,0.48,-0.75,0.74,-3.80,28.02,-16.44,31.78
51547,0.49,-0.76,0.74,-1.76,30.11,-20.98,31.78
51557,0.51,-0.78,0.74,0.58,35.16,-24.50,31.78
51567,0.49,-0.77,0.71,1.11,36.43,-27.71,31.78
51577,0.51,-0.77,0.71,1.79,39.11,-31.39,31.78
51587,0.50,-0.78,0.70,1.56,42.05,-36.92,31.78
51597,0.47,-0.77,0.71,0.52,43.66,-40.92,31.87
51607,0.43,-0.75,0.74,1.73,45.18,-42.70,31.78
51617,0.43,-0.74,0.73,1.65,46.58,-43.66,31.82
51627,0.43,-0.74,0.74,0.46,47.59,-45.76,31.82
51637,0.39,-0.72,0.75,-0.98,47.10,-46.60,31.82
51647,0.38,-0.74,0.79,-0.23,44.43,-44.37,31.73
51657,0.38,-0.74,0.76,3.56,50.23,-37.28,31.73
51667,0.38,-0.76,0.78,9.05,56.87,-30.63,31.82
51677,0.37,-0.79,0.85,10.05,59.47,-28.96,31.78
51687,0.36,-0.81,0.92,13.19,52.92,-32.17,31.73
51697,0.35,-0.80,0.93,17.57,47.34,-37.04,31.82
51707,0.36,-0.72,0.89,22.53,44.18,-39.71,31.78
51717,0.39,-0.69,0.84,26.98,48.37,-37.71,31.78
51727,0.39,-0.67,0.80,29.53,58.98,-35.02,31.78
51737,0.39,-0.69,0.81,29.45,69.47,-33.85,31.78
51747,0.39,-0.74,0.82,27.02,67.40,-38.75,31.78
51757,0.40,-0.75,0.81,22.58,61.02,-48.67,31.78
51767,0.40,-0.74,0.80,18.08,57.74,-59.40,31.78
51777,0.39,-0.74,0.79,17.69,54.05,-66.84,31.78
51787,0.35,-0.70,0.78,16.52,53.66,-71.79,31.68
51797,0.32,-0.70,0.79,16.46,54.84,-73.95,31.78
51807,0.30,-0.68,0.82,15.19,54.98,-74.95,31.82
51817,0.27,-0.67,0.85,12.64,52.93,-77.16,31.82
51827,0.24,-0.68,0.84,11.44,49.56,-77.94,31.82
51837,0.23,-0.67,0.83,11.04,46.78,-78.78,31.82
51847,0.24,-0.66,0.81,11.15,42.79,-81.10,31.73
51857,0.25,-0.63,0.80,8.15,39.83,-83.10,31.82
51867,0.29,-0.59,0.75,9.98,48.58,-82.27,31.82
51877,0.30,-0.60,0.77,8.75,54.58,-83.91,31.73
51887,0.30,-0.59,0.80,5.65,59.48,-87.57,31.78
51897,0.31,-0.60,0.81,4.90,62.75,-93.54,31.78
51907,0.32,-0.60,0.82,4.34,65.07,-99.88,31.78
51917,0.29,-0.63,0.85,2.47,65.02,-105.22,31.78
51927,0.22,-0.66,0.91,4.81,59.13,-109.66,31.68
51937,0.21,-0.68,0.89,6.90,62.40,-107.01,31.78
51947,0.19,-0.65,0.90,8.11,61.83,-106.23,31.68
51957,0.22,-0.63,0.87,10.08,61.88,-106.82,31.78
51967,0.25,-0.57,0.82,10.03,58.60,-109.76,31.78
51977,0.27,-0.55,0.82,11.11,64.06,-115.71,31.82
51987,0.27,-0.56,0.79,9.47,66.02,-121.36,31.73
51997,0.23,-0.55,0.77,4.40,71.02,-124.69,31.73
52007,0.18,-0.54,0.81,1.76,77.13,-123.98,31.82
52017,0.12,-0.52,0.82,-0.69,80.52,-121.37,31.82
52027,0.11,-0.51,0.84,-0.24,77.50,-118.95,31.73
52037,0.13,-0.50,0.83,-3.48,72.84,-118.98,31.82
52047,0.12,-0.51,0.83,-9.05,64.32,-121.65,31.82
52057,0.12,-0.52,0.82,-14.08,57.42,-122.56,31.78
52067,0.12,-0.53,0.84,-16.06,55.77,-121.18,31.78
52077,0.13,-0.55,0.86,-16.09,54.99,-119.24,31.78
52087,0.18,-0.56,0.85,-13.83,59.59,-117.88,31.78
52097,0.17,-0.58,0.83,-12.52,63.34,-117.07,31.78
52107,0.17,-0.59,0.81,-7.69,68.06,-114.09,31.78
52117,0.15,-0.57,0.78,-7.18,73.83,-107.98,31.68
52127,0.09,-0.54,0.79,-9.22,74.92,-99.36,31.78
52137,0.08,-0.53,0.82,-12.14,76.66,-90.69,31.78
52147,0.05,-0.54,0.84,-18.49,69.33,-84.31,31.78
52157,0.05,-0.53,0.87,-25.56,55.13,-82.58,31.82
52167,0.08,-0.54,0.91,-28.56,37.80,-81.80,31.82
52177,0.13,-0.55,0.90,-32.41,27.51,-83.88,31.82
52187,0.19,-0.58,0.95,-33.28,23.42,-86.63,31.82
52197,0.23,-0.62,0.99,-31.97,25.28,-91.05,31.82
52207,0.25,-0.65,1.01,-25.95,28.12,-97.80,31.73
52217,0.26,-0.67,1.01,-22.47,33.45,-107.37,31.82
52227,0.25,-0.66,1.01,-17.36,37.21,-117.02,31.87
52237,0.24,-0.66,0.99,-13.91,45.56,-124.56,31.73
52247,0.22,-0.63,0.98,-9.86,56.55,-130.15,31.78
52257,0.19,-0.60,0.97,-5.21,68.44,-134.06,31.87
52267,0.16,-0.60,0.97,0.26,82.38,-134.66,31.87
52277,0.10,-0.58,0.99,3.97,92.05,-135.95,31.78
52287,0.05,-0.59,1.03,7.36,91.59,-141.07,31.78
52297,0.02,-0.59,1.04,9.02,87.16,-148.67,31.78
52307,-0.01,-0.58,1.03,8.84,80.43,-159.18,31.78
52317,-0.01,-0.58,1.01,7.15,72.89,-169.11,31.68
52327,-0.00,-0.55,0.97,6.26,69.73,-176.55,31.78
52337,0.01,-0.54,0.93,6.24,75.13,-181.69,31.87
52347,-0.05,-0.55,0.92,6.40,84.06,-178.12,31.82
52357,-0.12,-0.54,0.96,8.64,97.05,-170.53,31.73
52367,-0.18,-0.53,1.00,15.92,101.21,-161.47,31.92
52377,-0.17,-0.53,0.99,19.68,105.59,-157.44,31.82
52387,-0.17,-0.52,0.97,20.18,96.81,-161.36,31.73
52397,-0.15,-0.50,0.93,18.20,85.86,-168.53,31.73
52407,-0.13,-0.47,0.89,13.47,73.33,-176.11,31.82
52417,-0.06,-0.41,0.81,4.53,65.04,-183.83,31.73
52427,-0.05,-0.44,0.81,-6.72,66.06,-190.67,31.73
52437,-0.08,-0.44,0.82,-17.83,66.70,-192.43,31.87
52447,-0.12,-0.46,0.87,-19.83,76.12,-187.74,31.78
52457,-0.16,-0.50,0.91,-14.85,91.97,-175.36,31.78
52467,-0.20,-0.49,0.96,-11.11,102.82,-162.81,31.78
52477,-0.24,-0.50,1.01,-7.16,108.50,-154.32,31.87
52487,-0.29,-0.51,1.04,-2.96,102.24,-148.78,31.78
52497,-0.32,-0.48,1.04,-2.46,86.52,-146.58,31.87
52507,-0.30,-0.43,0.98,-5.59,67.30,-147.59,31.78
52517,-0.27,-0.40,0.94,-13.54,48.69,-149.65,31.78
52527,-0.23,-0.36,0.93,-23.27,31.30,-151.71,31.73
52537,-0.20,-0.37,0.92,-35.08,19.85,-152.20,31.82
52547,-0.21,-0.37,0.90,-45.34,8.43,-147.80,31.82
52557,-0.20,-0.40,0.94,-48.37,13.16,-135.79,31.73
52567,-0.18,-0.46,0.99,-40.14,27.13,-119.76,31.82
52577,-0.16,-0.48,1.02,-27.56,47.07,-102.78,31.82
52587,-0.18,-0.50,1.06,-13.74,62.55,-88.93,31.73
52597,-0.19,-0.50,1.10,-0.24,69.08,-82.11,31.82
52607,-0.21,-0.48,1.11,10.00,68.34,-79.25,31.78
52617,-0.25,-0.43,1.10,13.88,60.61,-79.54,31.68
52627,-0.27,-0.40,1.08,12.85,45.60,-81.62,31.87
52637,-0.25,-0.36,1.05,7.11,27.60,-83.86,31.78
52647,-0.28,-0.31,1.02,2.15,9.24,-83.68,31.78
52657,-0.25,-0.29,0.98,-3.73,-4.93,-82.26,31.78
52667,-0.23,-0.28,0.94,-5.98,-17.18,-78.37,31.87
52677,-0.19,-0.27,0.90,-8.27,-23.37,-72.87,31.78
52687,-0.13,-0.23,0.86,-9.77,-21.22,-65.22,31.78
52697,-0.07,-0.22,0.85,-10.18,-10.08,-56.21,31.78
52707,-0.04,-0.23,0.87,-11.54,8.31,-46.90,31.82
52717,-0.03,-0.24,0.89,-11.74,26.40,-38.69,31.73
52727,-0.05,-0.25,0.94,-11.45,40.79,-34.70,31.82
52737,-0.07,-0.29,1.01,-11.63,44.21,-35.82,31.73
52747,-0.10,-0.31,1.04,-11.88,37.83,-39.40,31.82
52757,-0.13,-0.30,1.05,-11.13,27.37,-41.83,31.82
52767,-0.15,-0.30,1.06,-12.92,16.12,-41.98,31.82
52777,-0.14,-0.28,1.03,-14.44,8.15,-40.06,31.78
52787,-0.12,-0.30,1.01,-17.74,5.24,-38.14,31.82
52797,-0.10,-0.29,1.01,-21.68,2.76,-35.98,31.78
52807,-0.07,-0.30,1.00,-23.04,3.39,-32.26,31.68
52817,-0.06,-0.33,1.03,-22.02,8.35,-28.47,31.87
52827,-0.02,-0.34,1.03,-18.99,16.70,-25.40,31.78
52837,-0.01,-0.36,1.04,-17.01,24.66,-24.72,31.78
52847,-0.02,-0.37,1.05,-14.34,28.31,-25.30,31.97
52857,-0.05,-0.36,1.03,-12.41,30.55,-25.33,31.78
52867,-0.08,-0.34,1.05,-13.16,29.68,-25.69,31.78
52877,-0.11,-0.33,1.04,-14.56,27.80,-25.16,31.78
52887,-0.12,-0.33,1.05,-14.95,26.17,-22.46,31.82
52897,-0.13,-0.34,1.06,-14.55,23.83,-19.74,31.82
52907,-0.13,-0.35,1.07,-13.21,20.24,-16.95,31.82
52917,-0.14,-0.35,1.05,-11.91,16.96,-14.47,31.82
52927,-0.12,-0.34,1.04,-12.17,12.79,-13.63,31.92
52937,-0.11,-0.34,1.02,-14.41,9.24,-12.84,31.82
52947,-0.10,-0.35,1.02,-16.12,8.15,-11.86,31.87
52957,-0.10,-0.35,1.03,-17.54,8.02,-10.32,31.82
52967,-0.10,-0.37,1.08,-15.36,12.44,-8.14,31.82
52977,-0.10,-0.38,1.05,-13.19,11.04,-6.64,31.73
52987,-0.11,-0.40,1.06,-10.73,7.31,-5.76,31.87
52997,-0.09,-0.39,1.06,-8.08,3.42,-5.53,31.78
53007,-0.09,-0.41,1.04,-4.44,1.18,-3.98,31.78
53017,-0.10,-0.39,1.04,-4.18,1.98,-0.93,31.87
53027,-0.08,-0.39,1.04,-5.59,3.71,2.21,31.87
53037,-0.07,-0.39,1.05,-6.63,4.35,3.74,31.78
53047,-0.06,-0.40,1.05,-7.13,3.36,3.79,31.78
53057,-0.04,-0.41,1.05,-6.73,2.81,2.11,31.87
53067,-0.03,-0.41,1.05,-6.75,1.74,-0.79,31.78
53077,-0.02,-0.40,1.04,-6.89,-0.61,-3.50,31.73
53087,-0.03,-0.38,1.04,-8.46,-1.69,-5.80,31.73
53097,-0.03,-0.37,1.02,-9.92,-0.43,-6.17,31.82
53107,-0.04,-0.36,1.01,-10.44,4.12,-4.55,31.82
53117,-0.05,-0.35,1.01,-10.96,9.91,-1.83,31.73
53127,-0.07,-0.37,1.02,-10.79,13.68,0.23,31.82
53137,-0.08,-0.38,1.05,-9.50,14.55,1.82,31.73
53147,-0.09,-0.38,1.06,-7.45,13.10,2.78,31.73
53157,-0.10,-0.38,1.05,-7.31,8.38,2.95,31.87
53167,-0.10,-0.38,1.04,-7.88,1.69,2.64,31.87
53177,-0.08,-0.37,1.02,-9.25,-4.14,2.18,31.87
53187,-0.05,-0.37,1.00,-10.27,-7.30,1.27,31.87
53197,-0.03,-0.37,1.00,-10.81,-7.10,1.65,31.68
53207,-0.03,-0.38,1.00,-10.32,-4.44,2.53,31.87
53217,-0.02,-0.38,1.00,-9.95,-1.54,3.69,31.78
53227,-0.04,-0.38,1.00,-8.78,-1.56,6.00,31.78
53237,-0.03,-0.37,1.00,-6.99,-1.22,8.44,31.78
53247,-0.02,-0.37,0.98,-5.97,-1.27,10.03,31.78
53257,-0.00,-0.38,0.98,-6.90,-2.63,10.03,31.82
53267,0.00,-0.39,0.97,-7.76,-5.54,9.94,31.82
53277,0.02,-0.40,0.96,-7.54,-7.59,10.23,31.73
53287,0.05,-0.40,0.96,-6.85,-7.54,10.43,31.73
53297,0.06,-0.39,0.96,-6.87,-5.56,10.55,31.82
53307,0.07,-0.38,0.95,-7.62,-2.76,10.44,31.82
53317,0.07,-0.37,0.96,-8.89,0.49,9.83,31.73
53327,0.06,-0.37,0.98,-10.23,4.96,9.15,31.87
53337,0.05,-0.39,1.01,-11.08,8.23,7.22,31.82
53347,0.01,-0.41,1.05,-9.71,7.57,4.82,31.78
53357,-0.02,-0.42,1.08,-7.54,2.66,2.87,31.87
53367,-0.01,-0.40,1.06,-5.02,-4.14,1.37,31.78
53377,-0.01,-0.40,1.04,-4.15,-9.83,0.84,31.78
53387,0.01,-0.38,1.02,-4.53,-13.08,0.89,31.87
53397,0.04,-0.38,1.00,-5.53,-13.13,1.76,31.78
53407,0.06,-0.38,1.00,-7.53,-11.21,1.91,31.78
53417,0.05,-0.39,1.00,-7.82,-9.15,1.95,31.78
53427,0.05,-0.41,1.01,-6.98,-6.93,1.77,31.82
53437,0.05,-0.41,1.02,-5.97,-5.39,1.05,31.73
53447,0.05,-0.41,1.02,-5.73,-4.43,0.23,31.73
53457,0.05,-0.39,1.03,-4.85,-3.88,-0.09,31.82
53467,0.04,-0.40,1.02,-3.92,-3.42,-0.38,31.73
53477,0.05,-0.40,1.01,-3.13,-2.87,-1.05,31.82
53487,0.05,-0.39,1.00,-2.96,-2.81,-1.88,31.82
53497,0.06,-0.39,1.00,-3.66,-2.44,-2.40,31.78
53507,0.04,-0.39,1.00,-3.60,-3.07,-1.85,31.82
53517,0.03,-0.39,1.01,-4.43,-3.48,-1.04,31.82
53527,0.03,-0.40,1.02,-4.72,0.18,-0.29,31.78
53537,0.03,-0.41,1.04,-3.21,1.54,0.31,31.87
53547,0.02,-0.41,1.04,-2.31,0.35,-0.38,31.78
53557,0.02,-0.40,1.04,-2.02,-2.52,-2.06,31.78
53567,0.01,-0.40,1.03,-1.36,-6.41,-3.08,31.78
53577,0.00,-0.39,1.01,-1.33,-8.40,-2.67,31.78
53587,0.01,-0.38,1.01,-1.65,-8.79,-1.88,31.78
53597,0.02,-0.39,1.01,-1.83,-8.44,-1.33,31.87
53607,0.02,-0.39,0.99,-1.95,-8.02,-1.25,31.78
53617,0.03,-0.39,1.00,-1.76,-8.41,-1.21,31.92
53627,0.03,-0.39,0.99,-1.60,-8.31,-1.11,31.82
53637,0.04,-0.38,0.98,-1.50,-7.50,-1.13,31.82
53647,0.05,-0.38,0.98,-2.47,-5.73,-1.62,31.73
53657,0.05,-0.37,0.97,-3.54,-3.16,-1.74,31.82
53667,0.04,-0.37,0.96,-3.45,-1.25,-1.16,31.82
53677,0.02,-0.39,0.97,-4.11,0.20,0.46,31.82
53687,0.03,-0.39,0.99,-3.36,1.15,1.51,31.73
53697,0.03,-0.38,0.99,-3.33,1.65,2.09,31.92
53707,0.03,-0.38,0.98,-3.18,2.15,2.37,31.78
53717,0.04,-0.38,0.99,-4.44,2.09,2.37,31.87
53727,0.05,-0.38,0.98,-5.31,2.55,2.34,31.78
53737,0.05,-0.39,0.98,-5.25,3.51,2.41,31.78
53747,0.05,-0.40,0.99,-5.18,7.10,2.60,31.78
53757,0.04,-0.39,0.99,-4.53,10.67,2.73,31.78
53767,0.03,-0.39,1.00,-4.58,12.11,3.07,31.87
53777,0.02,-0.39,1.00,-4.46,11.45,3.54,31.87
53787,0.00,-0.40,1.02,-4.84,8.53,3.71,31.82
53797,-0.00,-0.41,1.03,-5.37,5.05,3.11,31.73
53807,-0.01,-0.40,1.04,-5.18,0.82,2.89,31.92
53817,-0.01,-0.39,1.04,-4.69,-3.66,2.69,31.82
53827,0.01,-0.35,0.98,-6.47,-10.75,3.31,31.82
53837,0.00,-0.38,1.03,-3.18,-11.01,2.44,31.87
53847,0.02,-0.39,1.01,-2.23,-10.26,3.04,31.73
53857,0.02,-0.38,1.00,-2.34,-10.98,3.62,31.73
53867,0.02,-0.39,0.98,-3.27,-10.82,4.72,31.78
53877,0.05,-0.39,0.99,-3.60,-10.11,4.95,31.78
53887,0.06,-0.40,1.00,-3.56,-10.64,3.15,31.78
53897,0.06,-0.39,0.99,-3.98,-11.48,1.89,31.78
53907,0.06,-0.37,0.96,-4.06,-11.42,2.03,31.78
53917,0.06,-0.38,0.96,-3.45,-10.75,3.59,31.87
53927,0.08,-0.38,0.98,-3.73,-7.21,4.46,31.78
53937,0.07,-0.38,0.99,-3.97,-4.55,3.92,31.78
53947,0.07,-0.38,0.98,-3.63,-3.18,4.09,31.82
53957,0.06,-0.38,1.00,-3.77,-2.55,3.77,31.82
53967,0.06,-0.38,0.99,-4.37,-2.64,3.45,31.73
53977,0.05,-0.39,1.00,-4.73,-3.10,3.76,31.82
53987,0.06,-0.38,1.00,-4.73,-1.74,4.11,31.73
53997,0.06,-0.39,1.00,-4.82,-1.15,4.82,31.82
54007,0.07,-0.39,1.00,-4.72,-0.20,5.18,31.87
54017,0.06,-0.40,1.01,-4.76,-0.46,5.27,31.73
54027,0.05,-0.39,1.00,-4.27,-1.95,4.82,31.82
54037,0.06,-0.40,1.00,-4.70,-2.70,4.20,31.78
54047,0.06,-0.38,1.00,-5.05,-3.48,3.56,31.87
54057,0.07,-0.39,0.99,-5.82,-3.37,3.31,31.78
54067,0.07,-0.39,1.00,-6.85,-2.14,3.19,31.97
54077,0.07,-0.38,0.99,-7.36,-1.79,2.72,31.78
54087,0.06,-0.40,1.00,-6.40,-1.68,2.43,31.78
54097,0.06,-0.41,1.02,-4.72,-4.24,3.01,31.78
54107,0.07,-0.42,1.02,-2.81,-5.31,3.18,31.78
54117,0.07,-0.41,1.02,-1.53,-4.95,3.27,31.87
54127,0.07,-0.40,1.01,-1.01,-4.87,3.51,31.82
54137,0.08,-0.40,1.00,-1.02,-4.58,3.40,31.82
54147,0.07,-0.39,1.00,-1.05,-4.40,2.29,31.82
54157,0.09,-0.41,1.00,0.11,-2.41,3.56,31.82
54167,0.06,-0.38,1.00,-1.37,-6.79,2.47,31.82
54177,0.08,-0.38,0.98,-2.81,-4.89,2.11,31.82
54187,0.07,-0.38,1.00,-2.85,-5.65,2.53,31.73
54197,0.07,-0.38,0.99,-4.05,-4.55,2.49,31.82
54207,0.06,-0.40,1.00,-4.24,-4.82,2.38,31.82
54217,0.08,-0.39,0.98,-3.18,-4.43,2.75,31.78
54227,0.08,-0.39,0.97,-3.28,-4.63,2.90,31.78
54237,0.10,-0.39,0.98,-4.58,-3.74,2.56,31.68
54247,0.09,-0.39,0.99,-4.60,-3.24,2.53,31.87
54257,0.08,-0.39,0.98,-4.14,-1.65,2.50,31.68
54267,0.08,-0.39,0.97,-4.15,-0.52,2.89,31.87
54277,0.08,-0.39,0.96,-3.86,1.11,3.30,31.87
54287,0.08,-0.39,0.97,-4.78,1.82,3.22,31.87
54297,0.07,-0.39,0.98,-5.68,1.80,3.19,31.78
54307,0.08,-0.39,0.99,-5.94,0.98,3.19,31.82
54317,0.08,-0.41,1.00,-5.54,0.44,2.46,31.82
54327,0.08,-0.40,1.00,-5.36,-0.05,1.82,31.82
54337,0.08,-0.39,1.00,-4.76,-0.50,2.32,31.82
54347,0.07,-0.40,1.00,-4.18,-0.32,2.70,31.92
54357,0.08,-0.40,1.01,-3.98,0.43,2.89,31.82
54367,0.08,-0.39,1.01,-4.06,1.47,2.98,31.73
54377,0.07,-0.40,1.02,-4.20,1.39,2.96,31.73
54387,0.06,-0.40,1.02,-4.43,0.32,3.15,31.87
54397,0.07,-0.40,1.02,-5.19,-0.20,3.30,31.78
54407,0.06,-0.40,1.03,-5.71,-1.88,3.33,31.78
54417,0.07,-0.39,1.02,-5.16,-2.50,3.56,31.68
54427,0.08,-0.41,1.03,-4.38,-3.16,2.82,31.78
54437,0.08,-0.40,1.01,-4.43,-4.70,1.57,31.78
54447,0.09,-0.39,1.00,-4.06,-5.02,1.69,31.78
54457,0.09,-0.39,0.99,-4.34,-3.98,2.53,31.87
54467,0.09,-0.40,0.99,-5.11,-2.82,2.40,31.87
