Millis,Acce_X,Acce_Y,Acce_Z,Gyro_X,Gyro_Y,Gyro_Z,Temp
111257,-0.08,-1.01,-0.05,3.31,5.47,2.49,31.87
111267,-0.10,-1.01,-0.05,-0.05,5.08,3.69,31.82
111277,-0.12,-1.01,-0.02,-2.75,2.69,5.22,31.78
111287,-0.14,-1.04,-0.01,-5.45,0.20,6.55,31.87
111297,-0.15,-1.05,0.03,-8.06,-3.02,7.05,31.87
111307,-0.14,-1.05,0.03,-10.20,-5.76,7.39,31.87
111317,-0.11,-1.04,0.04,-11.63,-6.92,7.33,31.87
111327,-0.09,-1.04,0.06,-12.34,-7.39,6.05,31.78
111337,-0.06,-1.03,0.07,-11.88,-9.25,4.35,31.78
111347,-0.05,-1.03,0.06,-10.43,-9.76,3.50,31.87
111357,-0.04,-1.03,0.06,-7.85,-8.85,3.04,31.78
111367,-0.04,-1.03,0.07,-5.44,-8.56,2.31,31.92
111377,-0.02,-1.02,0.06,-2.96,-6.26,0.47,31.82
111387,-0.02,-1.00,0.05,-0.61,-3.60,-1.37,31.82
111397,-0.03,-0.96,0.03,1.39,-1.28,-2.90,31.82
111407,-0.02,-0.92,0.01,1.27,0.03,-3.89,31.82
111417,-0.03,-0.89,-0.02,0.02,2.02,-4.18,31.92
111427,-0.02,-0.85,-0.03,-2.66,3.11,-3.62,31.78
111437,-0.04,-0.83,-0.04,-5.44,4.15,-2.58,31.73
111447,-0.05,-0.82,-0.04,-8.72,4.99,-2.05,31.87
111457,-0.06,-0.82,-0.02,-11.88,4.69,-2.34,31.87
111467,-0.07,-0.80,-0.01,-13.69,3.45,-2.46,31.87
111477,-0.07,-0.79,-0.01,-14.02,3.40,-1.45,31.78
111487,-0.05,-0.79,-0.02,-14.53,4.69,-0.02,31.78
111497,-0.05,-0.77,-0.01,-15.27,5.30,0.78,31.87
111507,-0.04,-0.77,-0.01,-15.19,6.43,1.19,31.78
111517,-0.04,-0.78,-0.01,-15.63,7.18,1.94,31.87
111527,-0.04,-0.76,-0.01,-16.41,7.65,2.21,31.82
111537,-0.04,-0.74,-0.02,-17.63,7.69,2.82,31.82
111547,-0.05,-0.75,-0.02,-18.55,8.29,2.99,31.73
111557,-0.04,-0.74,-0.03,-19.65,8.40,2.75,31.82
111567,-0.04,-0.75,-0.05,-21.59,7.98,2.37,31.92
111577,-0.04,-0.75,-0.06,-24.26,8.18,1.85,31.82
111587,-0.03,-0.77,-0.07,-26.95,7.77,1.13,31.82
111597,-0.04,-0.76,-0.06,-30.85,6.72,0.27,31.78
111607,-0.03,-0.78,-0.07,-32.85,7.86,0.55,31.87
111617,-0.03,-0.80,-0.07,-33.88,8.40,0.92,31.87
111627,-0.04,-0.82,-0.08,-34.64,9.30,2.18,31.87
111637,-0.04,-0.84,-0.06,-34.47,9.98,3.97,31.87
111647,-0.01,-0.85,-0.07,-32.85,11.76,6.09,31.87
111657,-0.01,-0.85,-0.08,-34.52,12.63,6.38,31.87
111667,-0.02,-0.86,-0.08,-33.51,14.21,7.21,31.82
111677,-0.04,-0.87,-0.12,-32.93,17.07,9.57,31.82
111687,-0.07,-0.87,-0.16,-33.79,17.25,11.73,31.92
111697,-0.09,-0.86,-0.19,-40.24,17.85,15.34,31.82
111707,-0.06,-0.85,-0.20,-48.14,19.88,18.47,31.82
111717,-0.04,-0.85,-0.20,-56.31,17.54,19.25,31.82
111727,-0.04,-0.89,-0.17,-60.44,13.36,18.37,31.78
111737,-0.05,-0.93,-0.12,-59.04,7.48,16.23,31.82
111747,-0.03,-0.98,-0.09,-53.18,2.89,12.27,31.87
111757,-0.02,-1.03,-0.04,-42.06,-1.45,7.40,31.87
111767,-0.03,-1.05,-0.04,-28.31,-1.07,0.78,31.87
111777,-0.06,-1.04,-0.05,-18.75,1.76,-4.56,31.87
111787,-0.09,-0.99,-0.13,-12.53,4.24,-6.90,31.87
111797,-0.11,-0.94,-0.19,-11.62,9.44,-5.92,31.87
111807,-0.15,-0.88,-0.22,-16.95,13.16,-3.33,31.78
111817,-0.15,-0.83,-0.27,-26.55,16.63,0.96,31.92
111827,-0.14,-0.83,-0.29,-36.99,18.32,5.50,31.82
111837,-0.16,-0.85,-0.29,-47.04,18.46,8.00,32.01
111847,-0.18,-0.90,-0.25,-54.61,14.85,10.40,31.82
111857,-0.16,-0.93,-0.23,-56.85,14.11,14.17,31.92
111867,-0.15,-0.97,-0.19,-55.69,14.93,16.61,31.82
111877,-0.14,-1.02,-0.13,-49.65,14.82,16.56,31.92
111887,-0.12,-1.04,-0.13,-42.41,16.05,13.22,31.78
111897,-0.12,-1.02,-0.14,-37.77,14.63,7.44,31.87
111907,-0.12,-0.98,-0.15,-35.22,11.79,-0.15,31.87
111917,-0.10,-0.94,-0.20,-35.82,8.34,-6.24,31.87
111927,-0.11,-0.90,-0.25,-37.77,6.63,-10.63,31.87
111937,-0.14,-0.87,-0.29,-39.68,4.98,-10.72,31.78
111947,-0.16,-0.86,-0.31,-40.84,5.01,-6.44,31.78
111957,-0.15,-0.85,-0.33,-42.29,6.53,0.00,31.87
111967,-0.14,-0.87,-0.32,-42.66,9.28,4.26,31.82
111977,-0.13,-0.91,-0.27,-40.73,8.98,4.72,31.82
111987,-0.12,-0.95,-0.20,-35.30,5.28,0.47,31.82
111997,-0.10,-0.97,-0.20,-26.69,0.79,-5.48,31.92
112007,-0.08,-0.94,-0.24,-21.76,-0.09,-9.77,31.92
112017,-0.08,-0.91,-0.28,-16.78,1.65,-10.90,31.92
112027,-0.10,-0.88,-0.30,-15.56,4.72,-8.92,31.87
112037,-0.09,-0.85,-0.36,-15.40,10.05,-4.09,31.82
112047,-0.09,-0.85,-0.39,-17.10,15.10,1.34,31.78
112057,-0.13,-0.86,-0.36,-19.94,15.94,4.90,31.87
112067,-0.14,-0.90,-0.32,-20.11,14.02,6.38,31.87
112077,-0.12,-0.89,-0.31,-19.73,12.32,6.66,31.87
112087,-0.09,-0.89,-0.34,-18.05,11.57,6.17,31.87
112097,-0.08,-0.91,-0.34,-17.37,8.90,3.76,31.78
112107,-0.08,-0.95,-0.32,-18.15,8.41,-0.43,31.87
112117,-0.11,-0.98,-0.32,-18.08,5.24,-5.11,31.87
112127,-0.13,-0.99,-0.33,-17.69,2.56,-8.32,31.82
112137,-0.15,-0.97,-0.34,-16.53,-0.73,-8.75,31.82
112147,-0.14,-0.92,-0.41,-14.12,0.95,-5.27,31.82
112157,-0.15,-0.89,-0.42,-12.11,2.76,1.59,31.82
112167,-0.14,-0.84,-0.49,-14.95,1.83,10.03,31.82
112177,-0.08,-0.84,-0.56,-21.71,8.43,20.32,31.82
112187,-0.09,-0.88,-0.55,-32.49,10.75,29.42,31.73
112197,-0.12,-0.91,-0.47,-53.57,13.13,32.29,31.97
112207,-0.10,-0.97,-0.36,-66.24,5.85,30.29,31.82
112217,-0.12,-1.03,-0.30,-67.48,2.44,25.77,31.78
112227,-0.13,-1.09,-0.23,-58.53,1.62,21.82,31.87
112237,-0.11,-1.10,-0.21,-41.74,3.95,20.95,31.87
112247,-0.12,-1.07,-0.23,-27.13,7.16,20.18,31.78
112257,-0.12,-1.05,-0.31,-18.90,10.61,18.69,31.87
112267,-0.11,-1.03,-0.37,-17.39,11.16,15.65,31.68
112277,-0.11,-1.03,-0.43,-20.46,9.07,8.99,31.87
112287,-0.09,-1.05,-0.44,-24.98,3.56,-0.11,31.68
112297,-0.13,-1.03,-0.42,-26.11,-4.53,-10.56,31.78
112307,-0.17,-0.97,-0.42,-25.39,-10.82,-14.27,31.82
112317,-0.18,-0.91,-0.48,-21.11,-8.21,-9.25,31.82
112327,-0.22,-0.89,-0.49,-19.82,0.84,0.05,31.82
112337,-0.26,-0.90,-0.46,-21.71,5.95,11.34,31.73
112347,-0.26,-0.93,-0.42,-22.08,6.93,18.95,31.82
112357,-0.22,-1.00,-0.40,-20.89,5.33,17.95,31.82
112367,-0.19,-1.03,-0.39,-19.66,-1.44,11.37,31.78
112377,-0.11,-1.05,-0.42,-14.20,-5.07,3.19,31.82
112387,-0.11,-1.05,-0.45,-12.70,-8.03,-7.15,31.78
112397,-0.12,-1.03,-0.45,-9.31,-13.95,-12.75,31.78
112407,-0.11,-0.98,-0.49,-4.99,-12.89,-12.49,31.78
112417,-0.09,-0.94,-0.58,-1.62,-3.66,-8.53,31.78
112427,-0.10,-0.92,-0.58,-4.46,6.58,-3.22,31.78
112437,-0.14,-0.91,-0.54,-7.11,10.06,0.95,31.78
112447,-0.13,-0.94,-0.50,-8.34,8.52,0.46,31.78
112457,-0.00,-1.05,-0.59,-11.51,11.31,-6.40,31.87
112467,-0.07,-0.93,-0.46,-16.92,-3.33,-12.34,31.73
112477,-0.22,-0.97,-0.43,-8.70,-20.79,-16.24,31.82
112487,-0.20,-0.97,-0.43,-10.78,-31.37,-23.98,31.82
112497,-0.21,-0.93,-0.47,-16.93,-26.41,-20.29,31.82
112507,-0.23,-0.92,-0.49,-11.88,-22.96,-6.75,31.73
112517,-0.16,-0.90,-0.59,-7.42,-0.72,9.89,31.82
112527,-0.15,-0.91,-0.61,-11.01,14.17,20.02,31.82
112537,-0.15,-0.94,-0.57,-15.80,15.65,24.26,31.87
112547,-0.15,-0.95,-0.54,-18.87,10.24,23.01,31.87
112557,-0.09,-0.93,-0.57,-19.80,1.74,19.25,31.78
112567,-0.06,-0.92,-0.62,-20.76,1.63,15.79,31.78
112577,0.01,-0.92,-0.61,-17.44,2.49,13.68,31.78
112587,0.04,-0.95,-0.57,-16.41,8.03,8.17,31.78
112597,0.06,-0.97,-0.55,-16.95,7.54,0.03,31.87
112607,0.06,-0.98,-0.55,-15.02,2.60,-7.97,31.78
112617,0.10,-1.03,-0.56,-13.68,-1.69,-15.89,31.78
112627,0.07,-1.04,-0.53,-14.44,1.65,-26.21,31.82
112637,0.03,-1.05,-0.52,-14.69,0.21,-31.40,31.73
112647,-0.02,-1.04,-0.51,-13.37,-1.74,-32.64,31.73
112657,-0.06,-1.04,-0.49,-12.96,-4.12,-31.45,31.92
112667,-0.06,-1.02,-0.47,-10.56,-7.11,-31.18,31.92
112677,-0.04,-1.00,-0.45,-5.94,-7.01,-32.09,31.82
112687,-0.06,-0.99,-0.42,-2.53,-7.42,-32.95,31.82
112697,-0.10,-0.98,-0.41,0.24,-10.67,-33.80,31.73
112707,-0.13,-0.98,-0.38,3.77,-14.23,-32.52,31.78
112717,-0.14,-0.99,-0.38,7.53,-14.64,-26.72,31.78
112727,-0.08,-1.00,-0.44,12.72,-3.86,-20.05,31.87
112737,-0.07,-1.01,-0.42,16.12,5.44,-15.37,31.78
112747,-0.09,-1.02,-0.38,16.75,7.16,-11.89,31.87
112757,-0.09,-0.99,-0.40,13.31,5.37,-9.37,31.78
112767,-0.10,-1.03,-0.35,9.51,-4.98,-10.18,31.68
112777,-0.05,-1.02,-0.39,5.54,-7.82,-14.43,31.78
112787,-0.04,-1.01,-0.39,2.67,-18.53,-18.61,31.73
112797,-0.01,-0.98,-0.42,-0.14,-18.70,-20.99,31.82
112807,-0.02,-0.96,-0.45,-0.37,-17.44,-20.84,31.92
112817,-0.01,-0.93,-0.48,-1.24,-12.72,-18.70,31.73
112827,-0.04,-0.93,-0.50,-5.15,-9.07,-15.07,31.73
112837,-0.05,-0.95,-0.48,-9.88,-8.56,-12.96,31.82
112847,-0.05,-0.98,-0.45,-12.67,-13.22,-13.34,31.82
112857,-0.02,-1.00,-0.47,-13.10,-17.05,-16.63,31.82
112867,-0.00,-0.99,-0.51,-13.02,-19.07,-19.47,31.82
112877,-0.02,-0.99,-0.50,-14.14,-21.30,-21.71,31.78
112887,-0.05,-0.99,-0.52,-13.30,-21.56,-17.86,31.78
112897,-0.09,-0.99,-0.51,-9.24,-7.89,-4.64,31.78
112907,-0.11,-1.02,-0.48,-1.08,14.18,13.66,31.68
112917,-0.15,-1.11,-0.38,6.31,27.57,24.93,31.78
112927,-0.14,-1.15,-0.34,7.51,27.37,22.24,31.78
112937,-0.13,-1.17,-0.34,5.97,8.06,8.21,31.87
112947,-0.08,-1.13,-0.38,3.21,-14.72,-8.90,31.78
112957,-0.04,-1.07,-0.44,-4.89,-28.37,-25.50,31.87
112967,-0.05,-1.03,-0.53,-6.18,-38.46,-33.33,31.82
112977,-0.03,-1.00,-0.61,-10.89,-33.69,-30.47,31.73
112987,-0.01,-0.94,-0.68,-15.42,-19.36,-17.86,31.82
112997,0.02,-0.91,-0.70,-13.98,0.17,-1.66,31.82
113007,0.00,-0.94,-0.66,-9.50,18.41,9.16,31.73
113017,-0.07,-0.99,-0.61,-7.59,26.66,17.19,31.82
113027,-0.10,-1.01,-0.54,-3.02,27.18,17.83,31.82
113037,-0.18,-1.06,-0.48,-2.41,21.30,15.60,31.82
113047,-0.20,-1.07,-0.43,-3.31,8.15,11.71,31.78
113057,-0.16,-1.07,-0.43,-4.49,-2.17,4.41,31.78
113067,-0.13,-1.06,-0.49,-8.15,-10.47,-2.75,31.87
113077,-0.12,-1.04,-0.49,-10.37,-19.04,-7.56,31.78
113087,-0.07,-1.04,-0.50,-9.63,-21.62,-10.66,31.78
113097,-0.08,-1.03,-0.51,-11.28,-20.09,-12.27,31.87
113107,-0.11,-0.99,-0.51,-11.39,-14.87,-5.98,31.87
113117,-0.10,-0.96,-0.55,-5.13,-0.82,8.27,31.78
113127,-0.08,-0.98,-0.54,-1.53,14.44,20.87,31.82
113137,-0.12,-1.02,-0.49,-4.52,20.84,27.34,31.82
113147,-0.11,-1.07,-0.43,-6.11,16.84,25.98,31.82
113157,-0.10,-1.14,-0.36,-6.67,11.08,17.34,31.82
113167,-0.14,-1.20,-0.28,-4.15,3.34,8.09,31.82
113177,-0.10,-1.18,-0.28,2.26,-6.66,1.62,31.82
113187,-0.12,-1.19,-0.32,9.65,-14.56,-0.98,31.82
113197,-0.12,-1.13,-0.34,13.33,-6.78,1.48,31.73
113207,-0.06,-1.16,-0.35,23.05,-5.07,6.27,31.73
113217,-0.11,-1.06,-0.45,21.77,1.65,13.79,31.78
113227,-0.06,-1.00,-0.53,13.82,6.73,15.11,31.87
113237,-0.06,-0.96,-0.60,-0.44,3.22,9.65,31.78
113247,-0.07,-0.95,-0.54,-8.63,-6.89,0.20,31.78
113257,-0.03,-0.96,-0.59,-19.24,-14.09,-10.35,31.78
113267,-0.07,-0.96,-0.54,-20.32,-19.53,-20.81,31.78
113277,-0.15,-0.95,-0.50,-17.25,-20.31,-21.18,31.78
113287,-0.18,-0.97,-0.51,-8.40,-14.49,-11.82,31.87
113297,-0.19,-0.99,-0.49,-1.71,-1.82,1.76,31.82
113307,-0.22,-1.02,-0.44,2.23,8.03,14.23,31.82
113317,-0.20,-1.04,-0.42,7.48,11.25,22.38,31.82
113327,-0.15,-1.06,-0.46,10.24,13.11,24.21,31.73
113337,-0.11,-1.06,-0.49,11.10,10.67,19.07,31.73
113347,-0.10,-1.03,-0.53,8.95,5.18,11.88,31.87
113357,-0.07,-1.01,-0.60,4.56,2.73,4.69,31.73
113367,-0.05,-1.02,-0.61,0.40,-1.30,0.32,31.82
113377,-0.05,-1.01,-0.62,-2.35,1.63,-0.56,31.92
113387,-0.05,-1.01,-0.62,-2.31,6.98,1.80,31.87
113397,-0.04,-1.03,-0.61,0.38,13.13,5.40,31.78
113407,-0.03,-1.06,-0.57,2.63,18.15,4.93,31.78
113417,-0.07,-1.10,-0.52,4.98,18.18,1.74,31.87
113427,-0.10,-1.11,-0.49,7.97,14.32,-2.08,31.78
113437,-0.11,-1.12,-0.50,13.50,9.48,-5.89,31.78
113447,-0.12,-1.10,-0.54,17.79,9.27,-7.73,31.78
113457,-0.14,-1.06,-0.58,18.93,11.77,-3.83,31.78
113467,-0.15,-1.05,-0.61,16.37,16.67,2.53,31.82
113477,-0.16,-1.10,-0.58,11.15,17.71,6.67,31.92
113487,-0.17,-1.14,-0.52,7.22,14.73,7.30,31.82
113497,-0.16,-1.16,-0.49,7.01,9.97,6.26,31.82
113507,-0.12,-1.13,-0.45,7.24,1.28,2.82,31.73
113517,-0.02,-1.15,-0.46,12.24,-3.19,-4.35,31.87
113527,0.05,-1.10,-0.52,15.24,-5.98,-12.43,31.82
113537,0.11,-1.05,-0.57,15.02,-8.32,-20.44,31.82
113547,0.15,-1.01,-0.63,14.63,-2.52,-25.89,31.78
113557,0.03,-1.00,-0.58,6.03,6.12,-23.71,31.78
113567,-0.10,-1.04,-0.45,-0.46,9.69,-13.51,31.78
113577,-0.17,-1.09,-0.36,-0.46,14.03,0.58,31.78
113587,-0.20,-1.16,-0.33,3.98,20.70,13.71,31.78
113597,-0.19,-1.19,-0.28,11.60,26.58,23.01,31.78
113607,-0.17,-1.17,-0.23,19.74,26.31,25.27,31.78
113617,-0.10,-1.15,-0.26,26.72,22.81,20.89,31.87
113627,-0.04,-1.10,-0.35,28.82,18.96,12.00,31.82
113637,-0.08,-1.04,-0.36,24.53,12.92,1.92,31.82
113647,-0.07,-1.03,-0.39,16.09,6.34,-5.48,31.82
113657,-0.12,-1.06,-0.34,6.73,-2.79,-10.18,31.82
113667,-0.15,-1.10,-0.30,1.22,-8.85,-12.92,31.82
113677,-0.32,-1.04,-0.48,-1.08,-5.18,-2.14,31.82
113687,-0.01,-1.04,-0.20,5.02,-2.00,-6.82,31.87
113697,-0.11,-1.09,-0.21,22.76,-11.45,0.49,31.87
113707,-0.07,-1.07,-0.29,25.57,-5.97,2.75,31.78
113717,-0.02,-0.99,-0.35,22.46,6.46,5.04,31.78
113727,-0.03,-0.93,-0.38,6.76,18.73,6.02,31.87
113737,-0.08,-0.96,-0.43,11.31,16.26,8.53,31.78
113747,-0.17,-0.98,-0.40,19.76,15.56,17.07,31.97
113757,-0.16,-1.01,-0.40,11.80,3.16,16.58,31.78
113767,-0.15,-1.05,-0.36,17.04,-8.89,18.05,31.87
113777,-0.10,-1.03,-0.38,25.65,-5.13,18.52,31.78
113787,-0.04,-0.98,-0.38,31.02,-1.42,18.63,31.82
113797,-0.00,-0.93,-0.40,30.67,8.38,18.24,31.92
113807,-0.03,-0.90,-0.43,31.73,11.73,18.08,31.82
113817,-0.05,-0.87,-0.45,30.43,12.98,18.27,31.73
113827,-0.07,-0.84,-0.45,21.68,10.23,20.02,31.82
113837,-0.10,-0.83,-0.43,12.76,3.45,20.63,31.73
113847,-0.10,-0.86,-0.38,4.38,0.61,21.04,31.73
113857,-0.09,-0.88,-0.32,-1.66,-6.79,18.63,31.78
113867,-0.05,-0.90,-0.26,-3.45,-11.53,12.43,31.78
113877,-0.02,-0.92,-0.25,2.23,-14.14,8.21,31.78
113887,0.00,-0.90,-0.28,11.91,-12.15,6.87,31.87
113897,-0.01,-0.88,-0.29,19.44,-6.44,7.77,31.78
113907,-0.03,-0.86,-0.31,22.31,-1.86,10.05,31.87
113917,-0.05,-0.85,-0.33,18.78,2.21,11.77,31.78
113927,-0.08,-0.84,-0.32,9.79,2.81,10.50,31.87
113937,-0.11,-0.84,-0.28,-2.58,-1.73,4.73,31.87
113947,-0.13,-0.83,-0.26,-11.19,-12.55,-2.15,31.82
113957,-0.10,-0.82,-0.28,-17.63,-14.72,-6.56,31.82
113967,-0.12,-0.84,-0.27,-19.59,-23.86,-7.28,31.82
113977,-0.11,-0.83,-0.30,-21.80,-17.01,-2.02,31.82
113987,-0.14,-0.88,-0.26,-19.16,-8.79,7.10,31.73
113997,-0.18,-0.94,-0.25,-14.05,0.50,17.15,31.82
114007,-0.20,-0.98,-0.20,-7.76,5.08,24.84,31.82
114017,-0.17,-1.00,-0.20,0.32,5.63,28.75,31.82
114027,-0.12,-0.98,-0.22,8.31,6.08,26.75,31.78
114037,-0.06,-0.97,-0.24,13.16,4.63,19.94,31.68
114047,-0.03,-0.95,-0.29,14.14,2.99,10.87,31.87
114057,-0.05,-0.95,-0.30,10.29,0.18,0.47,31.87
114067,-0.10,-0.97,-0.27,3.83,-8.75,-10.03,31.78
114077,-0.12,-0.99,-0.26,-1.54,-16.49,-18.23,31.87
114087,-0.12,-0.99,-0.27,-4.05,-22.08,-23.62,31.78
114097,-0.10,-0.98,-0.29,-3.28,-21.62,-25.24,31.78
114107,-0.08,-0.93,-0.31,-0.03,-16.52,-24.52,31.82
114117,-0.06,-0.91,-0.33,2.47,-8.41,-21.68,31.82
114127,-0.06,-0.89,-0.36,3.01,-2.20,-20.12,31.82
114137,-0.05,-0.90,-0.33,2.73,3.63,-20.06,31.82
114147,-0.05,-0.92,-0.32,-0.63,6.26,-22.76,31.92
114157,-0.04,-0.94,-0.28,-3.01,7.36,-28.27,31.87
114167,-0.05,-0.92,-0.21,-2.90,2.46,-33.80,31.82
114177,-0.04,-0.90,-0.22,-0.73,1.69,-37.19,31.82
114187,-0.03,-0.90,-0.23,3.10,5.74,-38.61,31.78
114197,-0.06,-0.92,-0.19,7.69,6.56,-37.31,31.87
114207,-0.09,-0.94,-0.19,13.27,8.56,-33.79,31.78
114217,-0.11,-0.98,-0.19,20.34,12.05,-29.42,31.78
114227,-0.14,-0.98,-0.17,29.10,15.71,-23.91,31.78
114237,-0.13,-0.96,-0.18,37.94,18.53,-18.31,31.87
114247,-0.12,-0.91,-0.22,44.69,23.60,-11.73,31.87
114257,-0.11,-0.86,-0.27,46.41,26.99,-4.31,31.78
114267,-0.12,-0.82,-0.30,44.00,26.58,1.27,31.82
114277,-0.11,-0.81,-0.31,38.69,24.96,5.36,31.92
114287,-0.11,-0.83,-0.28,32.67,20.23,6.31,31.92
114297,-0.11,-0.87,-0.25,29.31,13.53,4.67,31.82
114307,-0.10,-0.90,-0.22,26.21,10.46,1.31,31.82
114317,-0.09,-0.91,-0.20,25.51,5.59,-2.70,31.73
114327,-0.10,-0.90,-0.19,24.47,2.92,-5.04,31.78
114337,-0.11,-0.89,-0.18,22.49,0.99,-4.98,31.82
114347,-0.12,-0.89,-0.17,20.90,-0.78,-3.74,31.87
114357,-0.14,-0.92,-0.15,19.31,-1.94,-3.40,31.87
114367,-0.16,-0.94,-0.12,18.93,-5.83,-5.50,31.87
114377,-0.18,-0.95,-0.10,18.81,-13.02,-12.49,31.87
114387,-0.23,-0.95,-0.08,16.92,-27.65,-25.04,31.87
114397,-0.27,-0.95,-0.09,16.87,-46.02,-36.00,31.87
114407,-0.27,-0.87,-0.16,18.35,-54.87,-39.85,31.87
114417,-0.27,-0.79,-0.21,18.15,-55.59,-36.00,31.78
114427,-0.27,-0.77,-0.26,15.27,-53.31,-28.98,31.92
114437,-0.30,-0.79,-0.27,9.15,-59.65,-20.70,31.82
114447,-0.22,-0.80,-0.29,3.11,-66.21,-10.76,31.82
114457,-0.13,-0.84,-0.31,-0.61,-65.02,-0.11,31.82
114467,-0.08,-0.92,-0.28,-2.67,-60.50,11.88,31.82
114477,-0.03,-0.99,-0.23,-2.99,-53.27,22.26,31.82
114487,-0.00,-1.08,-0.14,-0.82,-55.40,28.12,31.82
114497,0.07,-1.12,-0.15,-0.26,-43.36,31.45,31.78
114507,0.10,-1.18,-0.08,3.34,-42.99,30.44,31.78
114517,0.15,-1.21,-0.03,6.29,-37.62,25.24,31.87
114527,0.13,-1.25,0.02,13.65,-35.30,14.69,31.78
114537,0.15,-1.24,0.01,22.69,-32.92,5.07,31.78
114547,0.16,-1.18,-0.05,34.96,-29.02,-1.83,31.87
114557,0.15,-1.10,-0.12,43.05,-20.66,-4.95,31.78
114567,0.13,-1.02,-0.17,44.03,-13.21,-7.80,31.78
114577,0.09,-0.97,-0.19,38.63,-10.00,-10.72,31.92
114587,0.05,-0.94,-0.17,32.05,-10.72,-11.95,31.82
114597,0.02,-0.93,-0.16,28.61,-7.51,-9.88,31.92
114607,-0.01,-0.93,-0.11,28.60,-5.16,-6.81,31.92
114617,-0.00,-0.95,-0.09,31.22,-0.37,-3.16,31.82
114627,-0.01,-0.95,-0.07,34.66,3.92,-1.02,31.78
114637,-0.00,-0.94,-0.07,36.90,6.53,-0.47,31.82
114647,0.00,-0.92,-0.08,36.23,8.63,-0.56,31.82
114657,-0.01,-0.90,-0.08,34.17,10.15,-0.53,31.78
114667,-0.02,-0.90,-0.08,32.05,12.55,0.05,31.78
114677,-0.04,-0.90,-0.06,28.93,14.03,-0.34,31.87
114687,-0.06,-0.91,-0.03,26.60,13.39,-2.90,31.78
114697,-0.06,-0.91,-0.02,23.65,11.45,-6.95,31.78
114707,-0.08,-0.90,0.01,20.95,6.56,-10.15,31.87
114717,-0.09,-0.89,-0.01,19.66,5.24,-10.93,31.78
114727,-0.09,-0.88,-0.01,17.25,5.21,-9.44,31.82
114737,-0.10,-0.89,0.00,15.08,6.43,-7.02,31.82
114747,-0.10,-0.88,0.00,13.33,8.60,-2.73,31.82
114757,-0.10,-0.89,0.01,12.21,10.09,1.60,31.82
114767,-0.08,-0.90,0.02,12.09,11.34,5.34,31.92
114777,-0.07,-0.90,0.01,11.79,11.74,7.22,31.82
114787,-0.06,-0.91,0.01,10.47,11.01,6.26,31.73
114797,-0.05,-0.91,-0.00,10.11,10.61,4.82,31.78
114807,-0.05,-0.91,-0.01,8.35,10.66,3.11,31.78
114817,-0.06,-0.92,0.01,6.70,10.75,0.03,31.87
114827,-0.06,-0.93,0.03,4.56,9.48,-4.35,31.78
114837,-0.11,-0.93,0.07,4.20,6.47,-8.18,31.87
114847,-0.13,-0.94,0.11,7.86,3.94,-8.98,31.78
114857,-0.12,-0.90,0.07,12.31,8.43,-5.47,31.78
114867,-0.12,-0.87,0.07,18.72,6.96,-1.56,31.87
114877,-0.10,-0.84,0.03,23.22,10.64,0.12,31.82
114887,-0.10,-0.80,-0.04,20.99,9.71,0.63,31.82
114897,-0.12,-0.81,-0.04,9.53,5.69,-0.55,31.82
114907,-0.15,-0.85,-0.02,-2.92,-1.56,-1.11,31.82
114917,-0.17,-0.94,0.04,-13.85,-6.58,-1.91,31.82
114927,-0.19,-0.99,0.11,-19.15,-9.63,-1.40,31.87
114937,-0.19,-1.02,0.16,-14.53,-10.23,1.30,31.82
114947,-0.18,-1.01,0.14,-7.77,-9.08,6.78,31.78
114957,-0.13,-0.98,0.12,2.38,-7.57,12.98,31.87
114967,-0.09,-0.95,0.07,8.27,-3.74,18.70,31.68
114977,-0.08,-0.94,0.04,9.33,-0.87,21.80,31.78
114987,-0.07,-0.95,0.04,6.46,0.99,20.63,31.78
114997,-0.07,-0.98,0.05,1.92,-1.53,14.78,31.78
115007,-0.07,-0.99,0.07,-2.17,-6.17,6.15,31.87
115017,-0.06,-1.00,0.05,-2.96,-10.11,-2.21,31.73
115027,-0.06,-1.00,0.04,-4.17,-11.01,-7.86,31.92
115037,-0.07,-0.99,0.04,-7.31,-11.85,-11.69,31.82
115047,-0.08,-0.99,0.05,-11.13,-11.40,-14.66,31.73
115057,-0.09,-1.01,0.07,-14.14,-11.18,-16.46,31.92
115067,-0.11,-1.02,0.09,-15.10,-10.43,-15.39,31.82
115077,-0.12,-1.04,0.11,-13.33,-8.35,-11.94,31.92
115087,-0.12,-1.06,0.14,-9.57,-6.21,-7.42,31.87
115097,-0.12,-1.06,0.13,-4.98,-4.69,-4.67,31.87
115107,-0.11,-1.06,0.13,-1.01,-1.51,-2.92,31.78
115117,-0.12,-1.06,0.11,0.52,-2.82,-2.93,31.78
115127,-0.11,-1.04,0.09,1.68,-4.18,-2.98,31.87
115137,-0.09,-1.04,0.07,1.94,-3.65,-2.47,31.87
115147,-0.07,-1.05,0.07,1.36,-3.77,-2.61,31.78
115157,-0.05,-1.03,0.05,0.17,-3.08,-2.96,31.78
115167,-0.02,-1.03,0.05,0.69,-0.12,-4.50,31.87
115177,-0.02,-1.03,0.06,1.19,0.17,-7.25,31.82
115187,-0.02,-1.02,0.07,1.15,-0.73,-10.87,31.82
115197,-0.01,-1.01,0.07,2.11,0.26,-12.84,31.82
115207,-0.01,-0.99,0.05,2.53,2.05,-13.24,31.82
115217,-0.01,-0.99,0.06,3.07,3.85,-12.93,31.92
115227,-0.02,-1.00,0.08,4.34,5.82,-12.69,31.68
115237,-0.02,-1.01,0.07,6.41,9.39,-12.43,31.92
115247,-0.02,-1.01,0.08,8.05,10.47,-13.21,31.87
115257,-0.03,-1.00,0.10,9.79,10.67,-14.03,31.97
115267,-0.03,-1.00,0.06,11.63,8.96,-14.35,31.78
115277,-0.01,-1.05,-0.00,13.83,14.31,-13.73,31.87
115287,-0.07,-0.99,0.02,10.70,11.40,-13.44,31.87
115297,-0.04,-0.94,0.02,6.21,15.22,-11.94,31.78
115307,-0.06,-0.98,0.07,9.04,16.14,-10.82,31.87
115317,-0.05,-0.99,0.05,7.42,16.23,-10.27,31.78
115327,-0.07,-1.00,0.06,6.00,13.11,-10.46,31.73
115337,-0.08,-1.00,0.07,4.29,11.51,-9.68,31.82
115347,-0.07,-1.01,0.06,0.96,10.90,-8.70,31.82
115357,-0.10,-1.02,0.08,-1.59,6.23,-9.27,31.92
115367,-0.10,-1.02,0.09,-4.29,4.06,-7.88,31.82
115377,-0.09,-1.02,0.09,-4.50,1.42,-6.40,31.73
115387,-0.09,-1.03,0.11,-3.91,0.58,-4.06,31.73
115397,-0.08,-1.05,0.13,-3.05,0.47,-1.25,31.87
115407,-0.07,-1.07,0.15,-1.69,0.87,1.88,31.87
115417,-0.05,-1.07,0.13,0.43,2.85,5.13,31.78
115427,-0.04,-1.08,0.13,0.99,3.57,7.11,31.78
115437,-0.02,-1.08,0.13,0.14,3.76,7.13,31.87
115447,-0.01,-1.08,0.12,-1.59,3.07,5.31,31.87
115457,0.01,-1.09,0.13,-2.47,1.25,1.57,31.87
115467,0.04,-1.08,0.12,-2.69,-0.20,-2.75,31.78
115477,0.03,-1.06,0.11,-1.57,-1.05,-5.51,31.82
115487,0.02,-1.05,0.09,0.58,0.12,-5.71,31.92
115497,-0.00,-1.05,0.09,1.97,1.07,-3.92,31.82
115507,-0.01,-1.06,0.10,3.16,1.66,-1.80,31.92
115517,-0.03,-1.07,0.10,4.09,2.06,-0.72,31.82
115527,-0.02,-1.06,0.10,5.56,2.41,-0.84,31.78
115537,-0.01,-1.05,0.10,6.90,3.27,-0.69,31.82
115547,-0.00,-1.03,0.10,6.32,3.01,-0.63,31.78
115557,-0.00,-1.00,0.09,5.62,2.63,0.20,31.87
115567,0.01,-1.00,0.08,3.82,3.77,0.90,31.87
115577,-0.00,-1.00,0.10,1.88,4.43,1.24,31.87
115587,-0.01,-1.00,0.10,1.40,4.89,1.30,31.87
115597,-0.01,-1.02,0.11,1.28,5.05,1.34,31.78
115607,-0.01,-1.01,0.12,2.21,4.84,1.50,31.97
115617,-0.01,-1.02,0.13,3.79,5.04,2.09,31.87
115627,-0.02,-1.00,0.12,4.40,6.40,2.63,31.73
115637,-0.02,-1.00,0.11,4.64,6.52,3.21,31.82
115647,-0.01,-1.00,0.11,3.82,6.63,2.55,31.82
115657,-0.01,-0.98,0.11,3.13,5.88,1.10,31.73
115667,-0.02,-0.98,0.10,3.34,5.65,-0.24,31.82
115677,-0.01,-0.98,0.10,3.68,6.69,-0.61,31.82
115687,-0.04,-0.96,0.09,3.56,7.33,0.67,31.78
115697,-0.04,-0.95,0.08,1.76,7.88,2.47,31.87
115707,-0.05,-0.95,0.10,-0.53,7.04,3.34,31.78
115717,-0.04,-0.96,0.10,-1.68,6.35,4.02,31.87
115727,-0.04,-0.97,0.11,-2.61,5.95,3.74,31.87
115737,-0.04,-0.98,0.11,-2.41,5.01,3.50,31.78
115747,-0.04,-0.98,0.12,-2.56,4.75,2.05,31.87
115757,-0.05,-1.00,0.13,-4.47,1.54,0.53,31.82
115767,-0.06,-1.00,0.14,-4.89,-0.55,0.06,31.92
115777,-0.05,-1.00,0.12,-3.73,0.18,1.48,31.73
115787,-0.05,-1.01,0.13,-2.58,1.13,4.31,31.73
115797,-0.03,-1.01,0.11,-1.69,3.07,6.35,31.73
115807,-0.02,-1.01,0.11,-1.59,3.34,6.67,31.73
115817,-0.02,-1.01,0.12,-1.51,2.50,6.41,31.82
115827,-0.01,-1.00,0.11,-1.62,3.10,5.66,31.87
115837,-0.01,-0.99,0.09,-2.06,5.37,5.07,31.78
115847,0.00,-1.01,0.08,-3.79,8.41,4.31,31.78
115857,-0.02,-1.01,0.09,-6.17,7.85,2.67,31.87
115867,-0.03,-1.03,0.12,-8.55,1.80,0.63,31.78
115877,-0.03,-1.03,0.12,-9.73,1.25,-0.72,31.78
115887,-0.03,-1.04,0.14,-7.47,1.15,-0.73,31.78
115897,-0.03,-1.04,0.14,-4.31,2.61,0.75,31.82
115907,-0.03,-1.02,0.13,-2.29,3.54,2.12,31.82
115917,-0.03,-1.03,0.10,-2.46,4.23,3.08,31.82
115927,-0.01,-1.03,0.10,-2.99,5.44,2.90,31.82
115937,-0.03,-1.03,0.13,-4.56,4.58,0.82,31.92
115947,-0.03,-1.06,0.13,-4.63,3.68,-1.65,31.73
115957,-0.04,-1.06,0.14,-3.21,2.38,-3.10,31.68
115967,-0.05,-1.08,0.14,-1.54,1.89,-3.85,31.78
115977,-0.04,-1.07,0.14,-0.64,1.30,-4.21,31.68
115987,-0.05,-1.05,0.12,-0.93,1.05,-3.45,31.87
115997,-0.05,-1.03,0.11,-1.85,2.03,-1.21,31.78
116007,-0.06,-1.04,0.11,-3.50,2.50,1.28,31.78
116017,-0.05,-1.04,0.12,-4.69,2.32,3.40,31.87
116027,-0.04,-1.05,0.13,-5.27,2.18,4.46,31.82
116037,-0.04,-1.07,0.15,-4.43,2.55,3.68,31.73
116047,-0.03,-1.07,0.15,-3.30,2.84,1.27,31.82
116057,-0.04,-1.06,0.14,-1.85,1.95,-0.67,31.82
116067,-0.04,-1.05,0.13,-0.99,2.06,-1.25,31.92
116077,-0.05,-1.04,0.12,-1.05,1.86,-0.46,31.82
116087,-0.05,-1.05,0.12,-1.51,2.64,0.56,31.78
116097,-0.04,-1.05,0.12,-2.76,3.01,1.10,31.78
116107,-0.03,-1.04,0.13,-2.23,2.76,0.98,31.87
116117,-0.02,-1.05,0.13,-0.98,3.33,0.40,31.78
116127,-0.03,-1.04,0.12,0.23,2.18,0.56,31.87
116137,-0.04,-1.02,0.12,0.60,2.37,0.38,31.78
116147,-0.03,-1.03,0.12,0.46,1.95,-0.40,31.78
116157,-0.03,-1.03,0.12,-0.02,1.47,-1.45,31.87
116167,-0.02,-1.02,0.12,-0.84,1.31,-3.05,31.87
116177,-0.04,-1.02,0.12,-1.50,0.34,-4.06,31.82
116187,-0.04,-1.01,0.11,-1.44,-0.32,-3.51,31.73
116197,-0.04,-1.01,0.11,-1.47,0.63,-2.00,31.73
116207,-0.05,-1.01,0.12,-1.11,1.51,0.31,31.92
116217,-0.04,-1.01,0.12,-0.98,3.16,2.47,31.92
116227,-0.03,-1.01,0.12,-0.89,4.49,3.05,31.82
116237,-0.02,-1.02,0.13,-0.50,4.84,1.74,31.82
116247,-0.03,-1.01,0.13,-1.24,3.27,-0.29,31.78
116257,-0.03,-1.01,0.13,-2.47,0.93,-2.56,31.87
