Millis,Acce_X,Acce_Y,Acce_Z,Gyro_X,Gyro_Y,Gyro_Z,Temp
98007,-0.09,-1.04,-0.07,9.47,6.66,-6.61,31.82
98017,-0.11,-1.01,-0.09,9.80,5.05,-7.45,31.82
98027,-0.12,-0.99,-0.11,6.95,4.66,-7.33,31.78
98037,-0.13,-0.99,-0.10,2.99,3.97,-5.92,31.82
98047,-0.13,-1.01,-0.09,-0.76,3.56,-4.61,31.78
98057,-0.13,-1.01,-0.08,-1.95,3.89,-3.85,31.87
98067,-0.13,-1.01,-0.06,-1.10,2.93,-3.79,31.78
98077,-0.14,-1.02,-0.06,0.32,1.37,-4.34,31.87
98087,-0.15,-1.01,-0.06,0.53,-1.07,-4.67,31.78
98097,-0.15,-1.03,-0.05,0.31,-1.59,-4.81,31.87
98107,-0.15,-1.04,-0.03,0.34,-1.76,-5.83,31.87
98117,-0.16,-1.03,-0.02,1.11,-2.66,-6.72,31.82
98127,-0.15,-1.02,-0.05,2.81,-2.17,-6.11,31.82
98137,-0.15,-1.02,-0.03,2.95,-2.64,-6.44,31.92
98147,-0.18,-1.03,-0.04,3.11,-5.54,-7.44,31.92
98157,-0.20,-1.02,-0.04,1.66,-8.92,-9.07,31.82
98167,-0.20,-1.01,-0.02,-0.03,-11.56,-11.95,31.82
98177,-0.22,-1.02,-0.00,-0.75,-15.13,-17.24,31.82
98187,-0.27,-1.00,-0.03,-3.57,-19.98,-22.99,31.87
98197,-0.33,-1.00,-0.03,-7.57,-26.82,-26.09,31.87
98207,-0.35,-1.01,-0.04,-12.14,-34.78,-25.02,31.87
98217,-0.35,-1.01,-0.02,-15.59,-39.30,-19.33,31.87
98227,-0.33,-1.04,-0.01,-15.37,-39.15,-10.70,31.78
98237,-0.30,-1.09,0.00,-10.96,-37.15,-1.56,31.87
98247,-0.26,-1.12,0.01,-3.48,-36.44,6.64,31.87
98257,-0.21,-1.12,-0.01,3.11,-35.02,12.72,31.78
98267,-0.16,-1.10,-0.03,7.95,-33.68,16.31,31.92
98277,-0.10,-1.07,-0.05,10.38,-30.93,16.56,31.92
98287,-0.05,-1.04,-0.08,10.67,-28.60,14.20,31.82
98297,-0.02,-1.03,-0.10,10.11,-27.28,8.84,31.73
98307,-0.02,-1.03,-0.11,7.77,-27.98,3.27,31.92
98317,-0.01,-1.00,-0.13,5.15,-28.64,-2.08,31.82
98327,-0.02,-0.99,-0.11,1.18,-26.89,-4.75,31.87
98337,-0.02,-1.01,-0.08,0.05,-25.63,-5.74,31.82
98347,-0.03,-1.02,-0.06,0.15,-22.89,-6.53,31.87
98357,-0.04,-1.03,-0.05,1.85,-20.24,-7.33,31.97
98367,-0.05,-1.04,-0.06,3.88,-18.92,-9.74,31.87
98377,-0.07,-1.03,-0.04,4.35,-18.58,-13.77,31.97
98387,-0.09,-1.03,-0.03,3.77,-20.29,-17.79,31.87
98397,-0.13,-1.02,-0.03,3.31,-22.49,-20.67,31.87
98407,-0.15,-1.02,-0.02,1.98,-23.27,-22.14,31.87
98417,-0.19,-1.02,-0.01,1.28,-25.28,-22.55,31.78
98427,-0.20,-1.00,-0.02,0.46,-27.10,-19.97,31.82
98437,-0.21,-1.01,-0.02,0.18,-27.08,-17.01,31.82
98447,-0.23,-1.02,-0.01,0.55,-27.69,-12.73,31.82
98457,-0.22,-1.01,-0.03,0.58,-28.56,-7.39,31.92
98467,-0.21,-1.00,-0.04,0.70,-27.27,-2.35,31.82
98477,-0.19,-1.03,-0.04,-0.08,-27.42,0.93,31.82
98487,-0.17,-1.04,-0.02,-0.78,-29.10,0.85,31.92
98497,-0.16,-1.05,-0.03,-1.60,-31.30,-0.43,31.87
98507,-0.15,-1.06,-0.01,-1.73,-33.37,-2.92,31.78
98517,-0.17,-1.06,-0.00,-1.57,-35.74,-6.02,31.87
98527,-0.17,-1.05,-0.01,-1.56,-38.63,-9.34,31.97
98537,-0.17,-1.04,-0.02,-2.99,-40.02,-12.52,31.78
98547,-0.19,-1.03,-0.03,-4.55,-42.66,-13.88,31.97
98557,-0.20,-1.02,-0.02,-4.79,-44.27,-8.56,31.87
98567,-0.19,-1.03,-0.01,-2.32,-42.06,0.72,31.87
98577,-0.18,-1.06,-0.01,2.24,-37.24,11.02,31.92
98587,-0.16,-1.07,0.02,8.47,-32.60,18.50,31.92
98597,-0.14,-1.09,0.03,15.95,-30.76,20.87,31.92
98607,-0.14,-1.08,0.02,20.49,-33.16,17.08,31.82
98617,-0.12,-1.03,-0.05,20.20,-36.29,12.99,31.92
98627,-0.09,-1.01,-0.07,14.24,-42.08,8.49,31.87
98637,-0.07,-0.98,-0.08,6.27,-43.11,2.98,31.92
98647,-0.06,-0.99,-0.06,0.69,-44.79,-3.37,31.82
98657,-0.04,-0.98,-0.06,-2.46,-45.42,-10.00,31.87
98667,-0.10,-0.96,-0.04,-4.93,-50.12,-15.65,31.78
98677,-0.05,-0.97,-0.08,-7.10,-48.60,-16.75,31.87
98687,-0.07,-0.99,-0.04,-8.27,-47.59,-15.63,31.78
98697,-0.07,-1.00,-0.02,-8.93,-44.81,-13.22,31.87
98707,-0.08,-1.04,0.01,-7.91,-41.80,-11.79,31.87
98717,-0.08,-1.04,0.03,-3.66,-40.69,-11.25,31.78
98727,-0.10,-1.04,0.04,0.85,-41.11,-11.30,31.92
98737,-0.10,-1.00,0.01,3.01,-42.43,-10.27,31.82
98747,-0.10,-0.98,-0.01,2.93,-42.17,-9.37,31.92
98757,-0.12,-0.97,0.01,0.70,-41.15,-8.81,31.82
98767,-0.12,-0.98,-0.00,-2.14,-41.60,-7.86,31.82
98777,-0.13,-0.99,0.01,-3.21,-41.97,-6.47,31.82
98787,-0.12,-0.99,0.01,-4.20,-41.66,-5.19,31.82
98797,-0.12,-1.02,0.02,-4.23,-43.39,-5.04,31.87
98807,-0.12,-1.01,0.01,-4.12,-44.81,-5.33,31.87
98817,-0.13,-1.02,0.02,-4.38,-46.41,-4.46,31.87
98827,-0.13,-1.02,0.00,-3.98,-46.73,-1.28,31.87
98837,-0.10,-1.03,0.00,-3.36,-46.24,2.03,31.87
98847,-0.08,-1.04,0.02,-2.29,-44.37,2.89,31.87
98857,-0.07,-1.05,0.01,-1.33,-45.13,-0.75,31.78
98867,-0.07,-1.05,0.01,-2.81,-47.73,-5.68,31.78
98877,-0.08,-1.04,0.01,-4.18,-50.46,-9.97,31.82
98887,-0.09,-1.02,-0.00,-5.21,-51.89,-12.64,31.82
98897,-0.10,-1.00,-0.01,-6.70,-52.96,-13.63,31.92
98907,-0.10,-0.99,-0.02,-7.59,-52.49,-13.95,31.92
98917,-0.09,-0.97,-0.02,-7.83,-51.28,-14.34,31.92
98927,-0.08,-0.97,-0.03,-6.89,-47.97,-12.69,31.87
98937,-0.08,-1.00,-0.01,-5.19,-48.43,-10.85,31.82
98947,-0.08,-1.01,0.00,-2.60,-47.07,-8.05,31.92
98957,-0.08,-1.02,-0.01,-1.07,-45.85,-3.56,31.78
98967,-0.10,-1.02,-0.01,0.27,-43.05,0.50,31.97
98977,-0.10,-1.03,-0.01,-0.81,-44.44,3.92,31.87
98987,-0.09,-1.03,-0.01,-3.21,-45.57,5.24,31.97
98997,-0.05,-1.02,-0.00,-5.54,-46.79,4.46,31.87
99007,-0.06,-1.03,-0.00,-5.88,-49.88,2.44,31.87
99017,-0.04,-1.05,0.01,-6.20,-52.20,0.37,31.87
99027,-0.02,-1.06,0.02,-5.05,-53.80,-3.21,31.78
99037,0.00,-1.05,0.02,-3.94,-55.31,-7.40,31.82
99047,0.05,-1.08,0.01,-1.74,-49.89,-12.11,31.82
99057,-0.00,-1.05,-0.03,-5.54,-59.50,-18.20,31.82
99067,-0.02,-1.05,-0.01,-9.36,-58.98,-21.54,31.82
99077,-0.03,-1.04,0.01,-10.55,-59.76,-23.85,31.82
99087,-0.08,-1.04,0.02,-10.52,-61.71,-23.73,31.82
99097,-0.06,-1.04,0.01,-7.73,-56.76,-18.49,31.87
99107,-0.08,-1.04,0.02,-2.55,-53.76,-11.94,31.87
99117,-0.09,-1.04,0.02,-0.23,-52.95,-5.31,31.87
99127,-0.09,-1.03,-0.00,0.31,-51.71,-0.69,31.87
99137,-0.07,-1.00,-0.01,0.11,-50.98,2.12,31.78
99147,-0.07,-0.98,-0.00,-0.64,-51.04,2.72,31.78
99157,-0.06,-0.98,-0.04,-3.53,-51.53,3.31,31.78
99167,-0.05,-0.98,-0.04,-6.47,-53.50,3.65,31.87
99177,-0.04,-0.99,-0.02,-8.35,-54.81,2.90,31.78
99187,-0.04,-1.02,0.00,-9.11,-56.47,2.17,31.82
99197,-0.03,-1.02,-0.00,-7.56,-58.79,2.52,31.82
99207,-0.03,-1.01,-0.02,-5.73,-58.17,3.63,31.73
99217,-0.03,-1.01,-0.01,-4.84,-57.42,3.08,31.92
99227,-0.04,-1.00,-0.01,-5.13,-55.74,2.03,31.82
99237,-0.09,-0.99,-0.01,-7.47,-61.05,0.89,31.82
99247,-0.04,-1.00,-0.04,-10.37,-58.69,2.15,31.82
99257,-0.04,-1.02,-0.01,-12.81,-56.38,2.69,31.82
99267,-0.03,-1.03,0.01,-13.56,-55.48,2.37,31.78
99277,-0.04,-1.03,0.01,-11.22,-55.16,2.73,31.87
99287,-0.03,-1.02,-0.01,-8.37,-55.10,4.70,31.87
99297,-0.03,-1.03,-0.01,-7.36,-55.34,6.70,31.87
99307,-0.02,-1.02,-0.01,-7.56,-55.42,7.22,31.87
99317,0.01,-1.00,-0.04,-9.16,-53.04,6.43,31.87
99327,0.01,-0.99,-0.02,-10.61,-52.09,3.01,31.87
99337,-0.02,-1.01,-0.01,-10.78,-54.09,-0.55,31.87
99347,-0.04,-1.02,-0.01,-10.50,-56.03,-0.90,31.82
99357,-0.05,-1.02,-0.00,-8.12,-55.98,1.19,31.82
99367,-0.04,-1.03,0.01,-4.92,-54.69,3.08,31.82
99377,-0.03,-1.02,0.00,-2.00,-52.79,3.71,31.82
99387,-0.05,-1.02,-0.00,1.77,-53.76,5.48,31.82
99397,-0.05,-1.02,-0.01,6.84,-55.10,7.60,31.87
99407,-0.03,-1.02,-0.00,8.89,-55.94,9.44,31.92
99417,-0.02,-0.98,-0.06,5.05,-60.90,10.20,31.78
99427,0.02,-1.02,-0.03,2.61,-49.16,12.99,31.78
99437,0.04,-0.99,-0.03,0.24,-46.35,12.26,31.78
99447,0.05,-0.97,-0.06,-3.31,-48.37,8.12,31.87
99457,0.10,-0.96,-0.07,-1.02,-44.00,3.30,31.87
99467,0.09,-0.95,-0.10,-2.27,-48.05,-3.79,31.87
99477,0.10,-0.92,-0.11,-7.69,-51.59,-10.05,31.78
99487,0.10,-0.91,-0.11,-11.79,-51.89,-12.75,31.87
99497,0.07,-0.96,-0.11,-19.11,-57.33,-13.04,31.82
99507,0.00,-1.00,-0.04,-24.09,-57.07,-8.99,31.92
99517,-0.01,-1.05,0.00,-23.44,-57.18,-6.76,31.82
99527,0.01,-1.06,0.06,-19.76,-59.30,-8.78,31.73
99537,-0.01,-1.06,0.04,-13.50,-66.40,-10.98,31.82
99547,-0.01,-1.04,0.01,-10.21,-69.98,-9.02,31.73
99557,0.01,-1.06,-0.03,-11.16,-63.91,-3.11,31.92
99567,0.01,-1.08,-0.01,-16.03,-60.38,2.90,31.78
99577,0.02,-1.11,0.05,-18.55,-49.44,7.19,31.82
99587,0.01,-1.14,0.10,-17.18,-44.24,8.31,31.78
99597,-0.01,-1.16,0.11,-10.78,-44.41,8.64,31.87
99607,-0.01,-1.17,0.12,-2.02,-44.52,10.02,31.78
99617,-0.03,-1.17,0.12,5.45,-44.87,10.84,31.87
99627,-0.03,-1.13,0.11,9.66,-43.74,11.08,31.78
99637,-0.03,-1.10,0.08,11.25,-43.79,11.02,31.87
99647,-0.04,-1.07,0.04,12.06,-44.05,11.85,31.87
99657,-0.05,-1.03,0.01,12.24,-46.15,13.95,31.97
99667,-0.05,-1.02,0.00,11.94,-50.03,15.63,31.82
99677,-0.04,-0.99,-0.01,10.55,-51.62,16.21,31.82
99687,-0.03,-0.98,-0.02,7.48,-51.92,15.39,31.82
99697,-0.02,-0.97,-0.02,2.89,-52.31,13.53,31.82
99707,-0.02,-0.97,-0.01,-0.98,-54.31,11.68,31.82
99717,-0.04,-0.97,-0.01,-4.09,-58.31,11.66,31.82
99727,-0.06,-0.98,-0.01,-5.51,-58.93,14.60,31.82
99737,-0.05,-0.98,0.01,-6.60,-58.15,18.66,31.78
99747,-0.04,-0.98,0.02,-6.95,-54.14,20.43,31.87
99757,-0.04,-0.98,0.06,-6.95,-53.80,18.58,31.87
99767,-0.06,-0.96,0.05,-5.92,-58.14,16.69,31.87
99777,-0.05,-0.95,0.02,-6.60,-60.90,15.50,31.78
99787,-0.04,-0.93,-0.00,-8.47,-61.16,14.18,31.87
99797,-0.02,-0.92,-0.02,-11.85,-56.98,12.53,31.78
99807,-0.02,-0.94,-0.00,-15.44,-54.09,10.95,31.87
99817,-0.04,-0.95,0.01,-18.40,-51.88,9.66,31.82
99827,-0.06,-0.94,0.06,-19.89,-53.24,6.82,31.82
99837,-0.09,-0.95,0.05,-19.88,-56.69,5.62,31.73
99847,-0.09,-0.95,0.04,-18.43,-57.97,7.18,31.82
99857,-0.08,-0.95,0.06,-16.90,-55.36,7.73,31.73
99867,-0.07,-0.94,0.03,-16.17,-52.26,6.78,31.78
99877,-0.07,-0.95,-0.00,-16.73,-51.04,6.09,31.82
99887,-0.05,-0.94,-0.01,-19.79,-49.97,3.16,31.87
99897,-0.06,-0.93,0.01,-25.91,-49.97,-2.20,31.87
99907,-0.10,-0.95,0.02,-30.61,-53.01,-5.56,31.87
99917,-0.13,-0.97,0.02,-32.08,-55.15,-2.90,31.87
99927,-0.16,-0.99,0.07,-28.96,-54.12,4.00,31.87
99937,-0.19,-1.01,0.10,-21.76,-49.04,15.56,31.87
99947,-0.19,-1.01,0.08,-11.54,-42.41,28.92,31.87
99957,-0.11,-1.00,0.04,-2.89,-34.00,37.94,31.92
99967,-0.06,-0.98,-0.01,-0.56,-27.24,36.78,31.92
99977,-0.02,-0.96,-0.04,-8.55,-30.61,27.80,31.82
99987,-0.01,-0.96,-0.10,-20.98,-37.65,14.50,31.73
99997,-0.03,-0.98,-0.06,-33.71,-46.66,2.08,31.82
100007,-0.07,-1.02,-0.02,-42.81,-53.79,-4.64,31.82
100017,-0.12,-1.07,0.06,-44.15,-56.06,-5.10,31.82
100027,-0.14,-1.11,0.10,-38.35,-50.46,1.47,31.78
100037,-0.17,-1.12,0.14,-26.17,-44.26,11.79,31.87
100047,-0.18,-1.13,0.13,-13.10,-34.96,23.47,31.87
100057,-0.19,-1.12,0.13,-3.54,-32.34,31.47,31.87
100067,-0.17,-1.11,0.11,1.59,-33.15,35.82,31.78
100077,-0.14,-1.10,0.06,4.43,-34.72,38.60,31.87
100087,-0.14,-1.08,0.03,4.61,-36.26,38.98,31.78
100097,-0.12,-1.07,0.01,5.62,-36.08,40.03,31.82
100107,-0.10,-1.06,-0.01,5.95,-34.11,39.92,31.92
100117,-0.08,-1.04,-0.02,5.77,-31.05,37.28,31.82
100127,-0.09,-1.03,-0.04,4.08,-30.85,32.29,31.82
100137,-0.10,-1.01,-0.05,-0.43,-32.92,26.20,31.73
100147,-0.14,-0.98,-0.04,-6.82,-37.42,22.06,31.82
100157,-0.20,-0.98,-0.05,-10.58,-41.16,23.08,31.82
100167,-0.21,-1.00,-0.05,-12.20,-39.02,29.28,31.78
100177,-0.23,-1.03,-0.02,-11.79,-34.73,38.81,31.78
100187,-0.21,-1.04,0.01,-8.89,-30.29,46.85,31.78
100197,-0.15,-1.05,0.03,-6.78,-26.95,47.63,31.87
100207,-0.10,-1.04,0.01,-4.90,-29.28,41.11,31.78
100217,-0.08,-1.04,-0.03,-5.16,-32.63,31.08,31.78
100227,-0.07,-1.00,-0.04,-10.11,-36.18,20.26,31.78
100237,-0.07,-0.98,-0.05,-15.62,-37.53,12.02,31.82
100247,-0.10,-0.99,-0.05,-21.51,-36.24,6.23,31.92
100257,-0.12,-0.99,-0.05,-24.64,-33.83,2.93,31.82
100267,-0.14,-0.99,-0.02,-27.04,-31.10,-0.90,31.82
100277,-0.13,-0.97,-0.01,-27.95,-31.36,-5.79,31.82
100287,-0.11,-0.94,-0.03,-29.85,-30.69,-13.59,31.82
100297,-0.07,-0.89,-0.05,-33.73,-30.53,-22.63,31.87
100307,-0.07,-0.85,-0.06,-39.97,-31.60,-32.14,31.78
100317,-0.07,-0.85,-0.09,-46.82,-33.53,-41.01,31.78
100327,-0.08,-0.85,-0.10,-53.33,-36.00,-49.01,31.87
100337,-0.07,-0.84,-0.16,-60.43,-35.07,-56.09,31.78
100347,-0.12,-0.87,-0.12,-65.83,-39.02,-63.94,31.78
100357,-0.16,-0.89,-0.11,-71.19,-38.75,-69.11,31.78
100367,-0.21,-0.91,-0.07,-75.18,-44.82,-72.31,31.87
100377,-0.28,-0.94,-0.03,-75.33,-49.76,-67.56,31.82
100387,-0.32,-0.94,-0.02,-70.44,-51.19,-53.77,31.82
100397,-0.37,-0.99,0.02,-61.56,-48.63,-31.76,31.73
100407,-0.42,-1.06,0.07,-47.18,-43.97,-4.27,31.92
100417,-0.42,-1.14,0.10,-27.73,-35.71,26.15,31.92
100427,-0.39,-1.21,0.13,-7.73,-25.76,53.02,31.87
100437,-0.33,-1.23,0.15,10.66,-18.76,71.98,31.82
100447,-0.25,-1.24,0.12,23.53,-16.56,80.61,31.78
100457,-0.14,-1.22,0.05,29.42,-15.89,78.29,31.87
100467,-0.00,-1.18,-0.06,28.11,-15.77,69.18,31.78
100477,-0.04,-1.12,-0.07,21.24,-23.50,51.65,31.87
100487,-0.05,-1.09,-0.12,12.43,-32.67,37.54,31.87
100497,-0.06,-1.07,-0.14,4.50,-34.73,27.45,31.78
100507,-0.14,-1.03,-0.15,-3.01,-31.80,23.25,31.78
100517,-0.10,-1.06,-0.13,-7.10,-26.67,19.92,31.73
100527,-0.16,-1.05,-0.11,-9.50,-25.42,16.75,31.82
100537,-0.17,-1.06,-0.08,-12.02,-25.63,13.30,31.82
100547,-0.18,-1.06,-0.07,-13.16,-27.85,8.53,31.92
100557,-0.20,-1.04,-0.07,-14.87,-30.09,5.71,31.82
100567,-0.20,-1.05,-0.08,-15.68,-30.41,6.03,31.82
100577,-0.21,-1.06,-0.05,-15.47,-29.50,9.31,31.82
100587,-0.20,-1.07,-0.04,-13.57,-26.24,13.59,31.82
100597,-0.19,-1.07,-0.04,-10.38,-22.96,16.82,31.78
100607,-0.17,-1.10,-0.05,-7.28,-21.07,17.68,31.78
100617,-0.14,-1.10,-0.05,-6.15,-20.56,15.13,31.87
100627,-0.14,-1.10,-0.05,-7.48,-22.87,9.79,31.87
100637,-0.17,-1.09,-0.03,-8.12,-24.89,5.10,31.97
100647,-0.17,-1.09,-0.04,-8.40,-24.70,3.82,31.87
100657,-0.17,-1.09,-0.04,-6.70,-22.03,5.62,31.78
100667,-0.19,-1.09,-0.04,-4.17,-18.53,8.26,31.82
100677,-0.19,-1.09,-0.03,-1.79,-15.31,11.05,31.82
100687,-0.20,-1.09,-0.04,-0.11,-14.84,12.17,31.82
100697,-0.19,-1.08,-0.05,-0.05,-14.64,10.55,31.82
100707,-0.17,-1.06,-0.05,-0.17,-15.40,8.24,31.92
100717,-0.19,-1.03,-0.05,-1.47,-16.63,5.44,31.82
100727,-0.18,-1.02,-0.06,-2.32,-17.92,3.02,31.78
100737,-0.19,-1.00,-0.07,-2.15,-17.68,3.18,31.82
100747,-0.20,-0.99,-0.09,-1.60,-15.47,4.27,31.87
100757,-0.21,-0.99,-0.07,-0.98,-12.46,6.44,31.87
100767,-0.21,-0.98,-0.06,-2.17,-10.98,6.79,31.78
100777,-0.22,-0.97,-0.06,-3.40,-11.77,5.94,31.78
100787,-0.24,-0.98,-0.05,-5.08,-13.19,5.16,31.97
100797,-0.21,-0.96,-0.05,-7.08,-14.05,4.56,31.78
100807,-0.20,-0.96,-0.07,-7.94,-13.40,4.08,31.87
100817,-0.18,-0.95,-0.08,-8.87,-11.53,4.61,31.87
100827,-0.17,-0.96,-0.07,-7.98,-9.86,5.39,31.82
100837,-0.16,-0.96,-0.07,-5.76,-7.34,4.60,31.92
100847,-0.18,-0.97,-0.05,-4.37,-5.47,2.95,31.73
100857,-0.18,-0.96,-0.05,-3.76,-6.37,0.18,31.82
100867,-0.21,-0.95,-0.06,-5.71,-7.95,-3.22,31.82
100877,-0.24,-0.94,-0.05,-9.24,-11.05,-5.50,31.82
100887,-0.25,-0.93,-0.05,-11.86,-12.82,-6.17,31.92
100897,-0.25,-0.93,-0.05,-13.02,-11.45,-4.78,31.87
100907,-0.25,-0.93,-0.05,-13.25,-9.48,-1.79,31.78
100917,-0.24,-0.94,-0.03,-11.97,-6.60,1.28,31.78
100927,-0.24,-0.96,-0.04,-10.95,-3.88,3.74,31.87
100937,-0.24,-0.97,-0.02,-10.26,-3.22,4.43,31.87
100947,-0.23,-0.98,-0.01,-9.18,-2.03,4.81,31.87
100957,-0.23,-0.99,-0.02,-7.48,-0.78,5.50,31.87
100967,-0.23,-0.99,-0.03,-6.27,-0.20,5.22,31.87
100977,-0.23,-0.99,-0.02,-6.37,-0.11,3.86,31.78
100987,-0.22,-0.99,-0.02,-7.37,-0.24,1.69,31.82
100997,-0.23,-0.99,-0.02,-8.84,-1.51,-1.15,31.73
101007,-0.23,-0.97,-0.05,-9.44,-2.03,-2.98,31.92
101017,-0.24,-0.98,-0.05,-9.48,-1.74,-3.13,31.73
101027,-0.25,-0.98,-0.04,-9.74,-0.81,-2.58,31.97
101037,-0.26,-0.99,-0.05,-10.27,0.41,-0.70,31.82
101047,-0.27,-1.00,-0.04,-10.35,2.03,0.50,31.82
101057,-0.27,-1.01,-0.02,-10.47,2.34,0.64,31.87
101067,-0.26,-1.00,-0.02,-10.35,2.31,-0.66,31.87
101077,-0.26,-1.01,-0.01,-9.98,0.89,-2.35,31.78
101087,-0.26,-1.00,-0.01,-8.92,-0.09,-3.53,31.97
101097,-0.26,-0.99,-0.04,-8.11,0.58,-3.33,31.87
101107,-0.26,-0.98,-0.03,-7.66,0.29,-1.04,31.78
101117,-0.26,-0.98,-0.03,-6.43,1.21,1.66,31.82
101127,-0.26,-0.98,-0.04,-4.87,3.30,3.54,31.82
101137,-0.26,-0.98,-0.05,-4.15,4.53,4.96,31.82
101147,-0.27,-0.98,-0.04,-4.24,3.85,5.40,31.82
101157,-0.26,-0.97,-0.05,-4.87,3.71,4.79,31.82
101167,-0.26,-0.97,-0.05,-6.49,3.65,3.62,31.73
101177,-0.27,-0.98,-0.04,-8.46,3.44,2.79,31.82
101187,-0.26,-0.99,-0.03,-9.56,2.50,1.80,31.87
101197,-0.26,-0.99,-0.04,-9.37,2.60,1.34,31.87
101207,-0.25,-1.01,-0.04,-8.35,3.54,2.21,31.78
101217,-0.25,-1.02,-0.03,-8.00,3.60,2.46,31.87
101227,-0.24,-1.02,-0.03,-7.68,4.17,1.62,31.87
101237,-0.24,-1.03,-0.01,-5.98,4.12,-0.34,31.87
101247,-0.26,-1.03,-0.01,-4.06,2.75,-1.56,31.97
101257,-0.26,-1.03,-0.04,-1.44,1.79,-0.11,31.82
101267,-0.23,-1.02,-0.05,1.57,3.88,2.24,31.82
101277,-0.22,-1.01,-0.07,3.53,7.68,4.76,31.82
101287,-0.19,-1.02,-0.07,4.32,10.15,6.53,31.82
101297,-0.18,-1.04,-0.09,4.17,11.50,7.53,31.82
101307,-0.16,-1.05,-0.09,5.07,11.07,7.08,31.82
101317,-0.13,-1.07,-0.11,6.85,11.53,7.04,31.82
101327,-0.12,-1.10,-0.09,7.88,13.53,7.60,31.78
101337,-0.11,-1.13,-0.08,9.69,15.27,6.90,31.87
101347,-0.11,-1.15,-0.06,13.21,18.38,5.68,31.87
101357,-0.09,-1.16,-0.05,16.85,19.95,3.33,31.87
101367,-0.08,-1.16,-0.05,19.74,23.01,0.21,31.87
101377,-0.09,-1.16,-0.06,22.63,23.85,-1.74,31.78
101387,-0.10,-1.16,-0.09,24.17,26.09,-2.60,31.82
101397,-0.10,-1.15,-0.11,25.05,29.45,-2.93,31.92
101407,-0.10,-1.14,-0.13,24.61,33.01,-3.01,31.82
101417,-0.11,-1.13,-0.12,23.60,35.42,-3.40,31.73
101427,-0.12,-1.11,-0.11,21.76,34.75,-5.45,31.92
101437,-0.12,-1.10,-0.10,19.51,34.24,-8.37,31.82
101447,-0.13,-1.09,-0.08,17.47,32.78,-11.88,31.82
101457,-0.14,-1.10,-0.07,15.97,32.32,-14.49,31.87
101467,-0.13,-1.10,-0.07,15.85,33.28,-15.74,31.78
101477,-0.15,-1.10,-0.07,17.15,35.91,-14.95,31.87
101487,-0.15,-1.09,-0.07,19.57,39.97,-11.08,31.87
101497,-0.15,-1.09,-0.08,22.66,44.87,-6.99,31.78
101507,-0.15,-1.09,-0.07,24.81,49.13,-3.16,31.78
101517,-0.14,-1.08,-0.07,27.04,51.56,-1.02,31.87
101527,-0.11,-1.08,-0.07,29.18,52.58,-1.07,31.92
101537,-0.08,-1.06,-0.08,30.05,52.47,-3.45,31.82
101547,-0.07,-1.04,-0.12,31.02,52.82,-5.34,31.82
101557,-0.07,-1.02,-0.16,31.82,53.95,-5.45,31.92
101567,-0.06,-1.01,-0.16,31.97,58.27,-4.85,31.82
101577,-0.06,-1.01,-0.16,31.19,62.31,-4.70,32.01
101587,-0.07,-1.01,-0.13,29.68,65.13,-5.92,31.87
101597,-0.06,-1.01,-0.13,28.89,68.15,-8.81,31.87
101607,-0.07,-1.00,-0.11,29.01,69.05,-11.97,31.87
101617,-0.09,-1.00,-0.11,30.27,69.21,-15.44,31.87
101627,-0.12,-0.98,-0.12,31.71,68.70,-18.18,31.87
101637,-0.15,-0.97,-0.10,33.45,68.29,-19.33,31.78
101647,-0.16,-0.98,-0.08,35.44,68.05,-18.12,31.87
101657,-0.16,-0.99,-0.05,39.85,66.29,-16.43,31.78
101667,-0.14,-1.07,-0.08,45.31,65.48,-14.79,31.82
101677,-0.15,-1.02,-0.05,46.69,70.78,-12.40,31.82
101687,-0.15,-1.01,-0.08,47.36,74.67,-9.97,31.82
101697,-0.16,-0.98,-0.06,48.08,77.30,-8.29,31.82
101707,-0.14,-1.01,-0.13,49.02,76.76,-7.21,31.92
101717,-0.16,-0.97,-0.09,46.63,81.22,-7.51,31.97
101727,-0.15,-0.97,-0.10,45.15,83.02,-8.44,31.82
101737,-0.18,-0.96,-0.08,42.27,83.08,-10.63,31.97
101747,-0.17,-0.97,-0.05,39.95,81.85,-13.02,31.87
101757,-0.19,-0.99,-0.03,39.15,80.29,-15.21,31.78
101767,-0.18,-1.00,-0.04,39.60,81.22,-14.78,31.87
101777,-0.18,-1.00,-0.04,40.84,84.26,-13.22,31.87
101787,-0.17,-1.00,-0.04,41.76,88.02,-10.46,31.87
101797,-0.15,-1.01,-0.05,41.69,88.58,-10.05,31.78
101807,-0.13,-1.01,-0.08,41.24,92.82,-11.18,31.82
101817,-0.14,-1.02,-0.06,39.71,93.98,-14.76,31.82
101827,-0.17,-1.02,-0.03,36.56,92.41,-19.59,31.82
101837,-0.18,-1.03,-0.02,34.72,90.40,-23.39,31.82
101847,-0.21,-1.04,-0.01,33.22,90.27,-26.92,31.82
101857,-0.23,-1.03,0.02,32.20,90.46,-30.00,31.82
101867,-0.25,-1.03,0.04,32.72,88.11,-31.86,31.92
101877,-0.26,-1.00,0.02,32.08,86.02,-31.77,31.78
101887,-0.26,-0.98,-0.01,32.17,85.33,-28.17,31.78
101897,-0.25,-0.96,-0.03,32.02,88.20,-23.45,31.87
101907,-0.26,-0.96,-0.04,30.02,93.33,-17.36,31.78
101917,-0.26,-0.98,-0.02,27.42,96.20,-13.07,31.87
101927,-0.27,-1.00,0.02,24.37,95.47,-11.10,31.87
101937,-0.26,-1.02,0.05,22.60,95.45,-10.79,31.87
101947,-0.23,-1.02,0.06,22.56,95.34,-12.99,31.82
101957,-0.23,-1.01,0.06,22.52,91.33,-17.02,31.92
101967,-0.22,-1.00,0.03,23.85,88.03,-19.42,31.82
101977,-0.23,-0.98,-0.00,24.37,87.10,-19.77,31.92
101987,-0.23,-0.95,-0.03,22.38,89.34,-17.53,31.82
101997,-0.25,-0.97,-0.02,19.86,91.66,-13.42,31.82
102007,-0.24,-0.96,0.00,17.89,92.58,-8.12,31.92
102017,-0.23,-0.96,0.00,17.42,95.95,-4.41,31.87
102027,-0.21,-0.96,0.04,19.31,99.37,-3.19,31.87
102037,-0.22,-0.94,0.01,19.40,100.21,-3.31,31.87
102047,-0.22,-0.92,-0.01,18.21,95.10,-3.07,31.87
102057,-0.20,-0.91,-0.03,14.81,95.22,-5.62,31.87
102067,-0.23,-0.90,-0.02,7.94,89.76,-10.75,31.87
102077,-0.27,-0.90,-0.03,-1.56,83.45,-15.22,31.92
102087,-0.28,-0.89,-0.05,-8.98,81.60,-15.19,31.82
102097,-0.30,-0.93,-0.01,-8.43,85.57,-12.41,31.92
102107,-0.30,-0.92,-0.01,-6.61,87.02,-7.34,31.92
102117,-0.27,-0.95,0.02,-1.54,92.14,-2.72,31.82
102127,-0.25,-0.96,0.04,6.06,96.72,0.52,31.92
102137,-0.23,-0.97,0.02,13.40,96.93,1.82,31.82
102147,-0.23,-0.96,0.02,16.26,100.53,0.55,31.87
102157,-0.24,-0.97,0.02,16.35,97.21,-2.40,31.87
102167,-0.24,-0.97,0.01,13.82,95.19,-7.37,31.87
102177,-0.25,-0.97,0.01,10.09,94.11,-11.33,31.87
102187,-0.25,-0.98,0.03,7.62,90.40,-14.15,31.87
102197,-0.26,-0.96,0.03,6.99,90.20,-15.11,31.87
102207,-0.25,-0.96,0.01,7.22,92.37,-14.82,31.87
102217,-0.25,-0.97,0.00,7.69,95.48,-13.21,31.92
102227,-0.27,-0.99,0.02,6.78,95.34,-12.73,31.73
102237,-0.27,-0.99,0.04,6.20,92.61,-12.89,31.92
102247,-0.25,-0.98,0.02,6.69,96.49,-13.63,31.82
102257,-0.23,-0.98,-0.01,8.73,95.92,-14.17,31.82
102267,-0.25,-0.97,0.01,8.47,95.53,-13.97,31.92
102277,-0.26,-0.97,0.00,7.92,95.86,-13.74,31.97
102287,-0.27,-0.98,0.01,5.27,99.95,-14.00,31.87
102297,-0.28,-1.00,0.04,3.22,100.47,-13.83,31.87
102307,-0.29,-1.01,0.08,4.76,98.47,-13.89,31.87
102317,-0.31,-1.01,0.09,9.15,95.44,-10.90,31.87
102327,-0.30,-1.00,0.05,16.72,101.76,-4.61,31.78
102337,-0.31,-0.97,0.06,23.65,106.29,4.38,31.87
102347,-0.31,-0.96,0.03,29.24,114.26,14.49,31.92
102357,-0.32,-0.94,0.02,32.90,122.34,25.33,31.82
102367,-0.29,-0.92,0.01,37.27,127.51,36.05,31.82
102377,-0.23,-0.88,0.01,41.82,136.40,42.84,31.82
102387,-0.21,-0.90,0.02,42.78,142.87,37.31,31.92
102397,-0.23,-0.94,0.05,42.00,141.68,26.26,31.82
102407,-0.25,-0.97,0.08,41.91,135.18,11.71,31.87
102417,-0.25,-0.98,0.09,44.15,128.00,-3.65,31.78
102427,-0.24,-1.02,0.08,47.36,123.92,-19.68,31.97
102437,-0.26,-1.04,0.08,46.27,120.38,-34.05,31.87
102447,-0.29,-1.07,0.08,43.82,113.97,-46.14,31.87
102457,-0.32,-1.07,0.07,40.02,108.46,-54.82,31.97
102467,-0.34,-1.05,0.07,35.95,101.69,-59.86,31.78
102477,-0.39,-1.03,0.09,32.63,91.56,-61.11,31.87
102487,-0.43,-1.04,0.09,31.97,85.65,-58.26,31.92
102497,-0.45,-1.03,0.08,28.40,79.71,-53.02,31.82
102507,-0.46,-1.02,0.08,23.73,71.07,-47.80,31.92
102517,-0.46,-1.00,0.08,17.51,63.44,-42.21,32.01
102527,-0.43,-0.98,0.07,10.50,58.53,-35.69,31.82
102537,-0.39,-0.98,0.06,3.83,54.99,-28.50,31.97
102547,-0.34,-0.97,0.06,-2.20,52.49,-21.79,31.92
102557,-0.30,-0.98,0.07,-7.18,52.00,-16.31,31.78
102567,-0.29,-1.01,0.11,-10.37,51.36,-11.94,31.87
102577,-0.29,-1.05,0.14,-9.63,49.07,-7.07,31.78
102587,-0.28,-1.07,0.16,-7.44,49.74,-2.21,31.87
102597,-0.26,-1.08,0.16,-2.90,51.74,2.27,31.87
102607,-0.26,-1.05,0.15,0.53,54.75,7.10,31.87
102617,-0.24,-1.07,0.14,6.79,55.63,9.95,31.82
102627,-0.22,-1.05,0.10,7.85,59.77,11.86,31.92
102637,-0.23,-1.05,0.11,6.27,56.43,9.50,31.92
102647,-0.22,-1.04,0.08,2.21,53.21,4.89,31.82
102657,-0.21,-0.99,0.06,-1.04,51.76,3.42,31.92
102667,-0.20,-0.99,0.06,-3.05,51.30,4.52,31.87
102677,-0.23,-0.98,0.07,-4.11,53.36,8.11,31.92
102687,-0.24,-0.99,0.06,-2.56,54.82,13.97,31.87
102697,-0.25,-0.98,0.13,-2.78,58.12,16.64,31.78
102707,-0.26,-1.04,0.14,-1.77,56.79,16.85,31.87
102717,-0.26,-1.03,0.16,0.75,56.66,16.43,31.87
102727,-0.28,-1.01,0.12,5.45,54.58,18.02,31.87
102737,-0.29,-0.98,0.11,8.78,54.53,22.69,31.87
102747,-0.27,-0.97,0.08,10.44,55.04,28.08,31.82
102757,-0.27,-0.97,0.08,9.89,57.82,30.06,31.82
102767,-0.27,-0.99,0.11,8.02,57.04,26.64,31.92
102777,-0.27,-0.98,0.11,6.78,53.53,20.55,31.92
102787,-0.28,-0.96,0.09,6.21,48.89,15.24,31.92
102797,-0.26,-0.95,0.07,4.53,45.31,11.62,31.87
102807,-0.27,-0.95,0.05,1.42,42.17,8.90,31.92
102817,-0.27,-0.95,0.07,-1.57,40.31,6.73,31.87
102827,-0.28,-1.00,0.12,-2.92,38.93,2.15,31.78
102837,-0.31,-1.02,0.17,-2.76,34.81,-4.50,31.87
102847,-0.32,-1.02,0.15,0.73,30.50,-9.71,31.78
102857,-0.33,-1.00,0.14,2.96,28.05,-11.73,31.97
102867,-0.34,-0.98,0.13,4.03,26.66,-9.31,31.87
102877,-0.35,-0.93,0.11,4.90,32.40,0.50,31.92
102887,-0.36,-0.90,0.09,8.11,40.63,15.73,31.92
102897,-0.37,-0.89,0.08,12.70,50.70,29.57,31.92
102907,-0.38,-0.89,0.10,13.71,52.43,34.72,31.82
102917,-0.34,-0.91,0.10,9.39,46.95,27.22,31.82
102927,-0.34,-0.93,0.11,1.10,33.54,10.05,31.97
102937,-0.34,-0.93,0.11,-7.24,17.57,-9.57,31.82
102947,-0.31,-0.95,0.08,-13.22,1.83,-26.31,31.87
102957,-0.33,-0.91,0.08,-20.38,-6.73,-37.95,31.78
102967,-0.34,-0.89,0.06,-22.61,-11.33,-39.30,31.78
102977,-0.33,-0.89,0.04,-23.97,-11.24,-29.95,31.78
102987,-0.31,-0.91,0.03,-22.84,-3.07,-12.87,31.87
102997,-0.28,-0.91,0.10,-19.73,8.76,2.95,31.87
