Millis,Acce_X,Acce_Y,Acce_Z,Gyro_X,Gyro_Y,Gyro_Z,Temp
66507,-0.09,-0.99,-0.00,-7.78,9.14,1.91,31.68
66517,-0.08,-0.97,-0.03,-9.14,12.46,6.07,31.59
66527,-0.07,-0.96,-0.04,-11.76,15.71,10.34,31.59
66537,-0.07,-0.99,-0.02,-14.08,17.24,12.84,31.54
66547,-0.06,-1.00,0.00,-15.00,17.45,13.00,31.73
66557,-0.06,-1.04,0.01,-14.63,16.51,11.46,31.54
66567,-0.06,-1.07,0.04,-13.47,15.29,8.60,31.64
66577,-0.04,-1.09,0.06,-10.36,15.02,3.95,31.54
66587,-0.04,-1.09,0.08,-7.63,15.43,-1.36,31.68
66597,-0.04,-1.10,0.09,-4.56,15.29,-7.51,31.59
66607,-0.06,-1.07,0.10,-1.20,14.67,-13.37,31.59
66617,-0.07,-1.04,0.09,3.19,16.21,-17.21,31.59
66627,-0.09,-1.00,0.06,6.58,17.96,-17.99,31.59
66637,-0.13,-0.95,0.05,7.04,19.08,-17.04,31.68
66647,-0.16,-0.91,0.03,6.30,18.56,-14.15,31.59
66657,-0.17,-0.87,0.00,3.12,17.35,-9.76,31.64
66667,-0.17,-0.85,0.00,-0.54,16.57,-5.37,31.64
66677,-0.15,-0.83,0.01,-4.01,16.09,-1.98,31.64
66687,-0.14,-0.83,0.01,-6.38,16.21,0.55,31.64
66697,-0.12,-0.84,0.01,-7.35,16.76,2.95,31.73
66707,-0.12,-0.84,0.02,-7.76,17.83,4.16,31.64
66717,-0.10,-0.86,0.02,-9.19,17.69,3.84,31.59
66727,-0.10,-0.88,0.02,-11.19,17.37,1.98,31.59
66737,-0.10,-0.89,0.03,-13.61,15.61,-1.31,31.59
66747,-0.11,-0.89,0.03,-16.50,12.55,-6.24,31.68
66757,-0.12,-0.88,0.08,-18.06,8.52,-11.23,31.68
66767,-0.14,-0.87,0.09,-17.02,5.07,-14.34,31.59
66777,-0.14,-0.84,0.07,-14.66,5.66,-13.48,31.59
66787,-0.15,-0.81,0.05,-12.24,8.66,-9.38,31.64
66797,-0.16,-0.78,0.04,-12.14,11.86,-4.32,31.64
66807,-0.14,-0.76,0.02,-12.99,14.00,0.95,31.73
66817,-0.16,-0.76,0.00,-17.04,13.37,5.44,31.64
66827,-0.14,-0.76,0.00,-20.56,12.93,8.03,31.54
66837,-0.13,-0.77,0.01,-22.78,12.10,9.84,31.64
66847,-0.11,-0.78,0.00,-24.60,13.21,10.93,31.59
66857,-0.11,-0.81,0.02,-26.29,11.76,10.12,31.68
66867,-0.11,-0.82,0.02,-27.87,8.89,6.94,31.49
66877,-0.07,-0.84,0.03,-29.75,10.22,4.14,31.68
66887,-0.08,-0.84,0.03,-31.50,7.51,0.04,31.68
66897,-0.08,-0.85,0.00,-32.73,7.95,-3.92,31.59
66907,-0.08,-0.84,-0.02,-33.52,5.95,-7.44,31.59
66917,-0.07,-0.83,-0.04,-34.28,4.10,-9.39,31.73
66927,-0.07,-0.80,-0.06,-36.31,3.50,-9.26,31.64
66937,-0.07,-0.80,-0.06,-37.02,5.33,-7.53,31.54
66947,-0.07,-0.81,-0.05,-37.70,7.70,-4.60,31.64
66957,-0.06,-0.82,-0.07,-37.80,9.50,-2.37,31.64
66967,-0.05,-0.82,-0.09,-37.48,11.11,-1.17,31.64
66977,-0.04,-0.84,-0.10,-38.79,12.23,-1.10,31.68
66987,-0.04,-0.85,-0.10,-41.50,12.60,-2.01,31.68
66997,-0.04,-0.85,-0.10,-43.95,11.51,-3.66,31.68
67007,-0.05,-0.84,-0.11,-45.29,10.79,-4.80,31.59
67017,-0.06,-0.85,-0.11,-45.23,10.20,-3.53,31.68
67027,-0.06,-0.85,-0.13,-44.12,11.53,-0.34,31.59
67037,-0.06,-0.84,-0.14,-43.47,14.06,3.33,31.68
67047,-0.06,-0.85,-0.14,-47.00,13.72,4.73,31.68
67057,-0.04,-0.85,-0.15,-49.50,14.31,3.67,31.64
67067,-0.05,-0.86,-0.15,-51.05,13.37,0.61,31.73
67077,-0.04,-0.88,-0.16,-52.08,13.75,-2.13,31.64
67087,-0.05,-0.92,-0.15,-49.60,12.88,-5.56,31.64
67097,-0.07,-0.96,-0.15,-43.35,13.68,-7.66,31.54
67107,-0.09,-0.96,-0.18,-36.79,16.50,-5.38,31.59
67117,-0.12,-0.96,-0.21,-33.18,20.09,0.31,31.54
67127,-0.15,-0.97,-0.21,-31.96,23.27,7.68,31.68
67137,-0.15,-0.97,-0.22,-30.36,24.52,13.45,31.49
67147,-0.13,-0.99,-0.24,-29.80,27.56,16.80,31.68
67157,-0.13,-0.99,-0.23,-33.61,22.60,15.02,31.59
67167,-0.11,-0.98,-0.23,-36.95,17.79,9.69,31.68
67177,-0.10,-0.96,-0.26,-40.68,14.49,4.31,31.68
67187,-0.10,-0.94,-0.28,-44.89,11.76,0.37,31.68
67197,-0.11,-0.95,-0.26,-47.88,8.27,-2.31,31.59
67207,-0.09,-0.98,-0.25,-47.87,7.92,-4.53,31.64
67217,-0.07,-0.99,-0.25,-46.41,8.20,-7.22,31.54
67227,-0.06,-0.99,-0.25,-43.69,9.04,-10.53,31.54
67237,-0.07,-0.96,-0.26,-39.59,9.66,-11.66,31.64
67247,-0.10,-0.95,-0.30,-36.33,8.85,-10.07,31.64
67257,-0.11,-0.94,-0.30,-35.97,10.07,-6.66,31.54
67267,-0.10,-0.92,-0.31,-34.16,11.98,-2.05,31.54
67277,-0.08,-0.89,-0.34,-31.56,17.05,2.28,31.49
67287,-0.09,-0.88,-0.39,-32.37,19.75,6.08,31.59
67297,-0.09,-0.89,-0.40,-37.27,21.14,10.81,31.49
67307,-0.10,-0.89,-0.40,-45.18,16.05,12.34,31.59
67317,-0.08,-0.93,-0.34,-52.28,14.15,9.44,31.59
67327,-0.06,-0.93,-0.37,-60.02,6.12,1.95,31.59
67337,-0.04,-0.99,-0.34,-61.99,5.67,-0.94,31.49
67347,-0.06,-1.04,-0.28,-54.55,9.34,-3.19,31.59
67357,-0.07,-1.07,-0.27,-45.11,12.69,-5.50,31.64
67367,-0.09,-1.05,-0.30,-29.82,16.79,-4.08,31.54
67377,-0.14,-1.03,-0.35,-16.15,22.76,4.41,31.54
67387,-0.15,-1.01,-0.39,-11.73,34.99,16.77,31.64
67397,-0.12,-1.01,-0.40,-14.18,37.49,23.33,31.54
67407,-0.11,-0.99,-0.41,-22.56,35.37,20.02,31.59
67417,-0.08,-0.98,-0.40,-34.29,25.47,12.01,31.54
67427,-0.06,-0.97,-0.39,-43.35,13.69,2.02,31.59
67437,-0.05,-1.00,-0.38,-45.19,7.17,-6.00,31.68
67447,-0.08,-1.02,-0.35,-43.45,5.03,-9.01,31.49
67457,-0.07,-1.02,-0.30,-38.93,7.50,-8.29,31.59
67467,-0.06,-1.01,-0.30,-33.45,12.26,-6.62,31.68
67477,-0.06,-1.01,-0.29,-26.55,18.00,-3.41,31.59
67487,-0.06,-0.96,-0.34,-18.19,24.47,1.23,31.59
67497,-0.05,-0.89,-0.41,-9.79,31.88,7.87,31.73
67507,-0.05,-0.83,-0.49,-6.42,38.73,14.76,31.64
67517,-0.05,-0.78,-0.54,-7.43,41.17,19.21,31.64
67527,-0.03,-0.74,-0.57,-13.02,39.66,19.18,31.64
67537,0.01,-0.74,-0.61,-23.39,32.78,15.23,31.59
67547,0.02,-0.74,-0.62,-34.70,24.73,10.40,31.64
67557,0.03,-0.75,-0.60,-44.54,17.66,8.21,31.59
67567,0.08,-0.82,-0.53,-48.00,20.81,9.73,31.59
67577,0.04,-0.88,-0.46,-47.80,19.24,10.76,31.59
67587,0.08,-0.96,-0.38,-38.00,22.41,11.83,31.59
67597,0.07,-1.02,-0.34,-22.07,24.83,11.31,31.68
67607,0.10,-1.04,-0.35,-11.13,34.24,10.97,31.59
67617,0.09,-1.00,-0.39,0.18,36.05,6.55,31.59
67627,0.05,-0.97,-0.44,3.46,33.16,0.68,31.64
67637,0.05,-0.94,-0.49,0.19,28.34,-4.50,31.64
67647,0.03,-0.91,-0.51,-5.85,23.79,-7.19,31.64
67657,0.01,-0.86,-0.52,-11.03,19.53,-6.16,31.64
67667,-0.01,-0.87,-0.49,-11.53,18.31,-1.06,31.49
67677,-0.03,-0.92,-0.43,-7.62,19.32,5.98,31.54
67687,-0.00,-0.98,-0.51,-6.07,41.25,16.69,31.59
67697,-0.07,-1.11,-0.34,-4.62,20.83,12.65,31.59
67707,-0.04,-1.13,-0.27,-2.86,18.11,9.32,31.49
67717,-0.04,-1.13,-0.26,-0.43,13.02,-0.10,31.59
67727,-0.06,-1.13,-0.26,4.29,-7.07,-11.45,31.59
67737,-0.02,-1.04,-0.41,9.46,-11.34,-17.54,31.59
67747,-0.04,-0.95,-0.51,8.05,-3.02,-14.13,31.59
67757,-0.05,-0.89,-0.57,-3.53,2.79,-6.59,31.64
67767,-0.06,-0.90,-0.54,-15.53,3.57,-2.08,31.64
67777,-0.07,-0.91,-0.52,-20.78,6.40,0.18,31.64
67787,-0.05,-0.98,-0.48,-21.04,6.95,0.68,31.64
67797,-0.03,-1.03,-0.42,-14.21,8.83,2.27,31.59
67807,-0.03,-1.18,-0.36,-1.23,7.27,-2.50,31.54
67817,-0.03,-1.24,-0.26,9.40,-0.03,-12.50,31.49
67827,-0.06,-1.33,-0.18,21.08,-5.84,-26.70,31.49
67837,-0.06,-1.24,-0.31,21.56,-25.93,-40.48,31.49
67847,-0.05,-1.12,-0.44,24.34,-27.86,-44.14,31.59
67857,-0.08,-1.02,-0.56,24.83,-21.93,-34.57,31.59
67867,-0.08,-0.96,-0.61,22.56,-6.41,-16.74,31.49
67877,-0.07,-0.92,-0.65,15.77,8.34,-0.84,31.64
67887,-0.09,-0.95,-0.62,4.52,8.47,6.90,31.64
67897,-0.09,-0.99,-0.59,-8.81,0.69,2.67,31.64
67907,-0.13,-1.02,-0.49,-17.91,-23.09,-12.91,31.54
67917,-0.16,-1.03,-0.46,-19.62,-47.02,-29.18,31.64
67927,-0.20,-1.04,-0.50,-17.06,-66.55,-40.99,31.59
67937,-0.19,-1.00,-0.56,-13.31,-75.18,-45.15,31.59
67947,-0.17,-0.94,-0.62,-15.63,-70.50,-38.49,31.59
67957,-0.17,-0.89,-0.70,-20.36,-56.19,-19.44,31.59
67967,-0.16,-0.93,-0.67,-29.95,-45.12,4.27,31.49
67977,-0.12,-0.95,-0.67,-39.66,-23.30,24.94,31.59
67987,-0.07,-0.98,-0.61,-42.73,-8.08,38.67,31.59
67997,-0.03,-0.99,-0.60,-42.44,0.12,44.71,31.64
68007,0.03,-1.06,-0.53,-40.85,3.46,43.52,31.54
68017,0.06,-1.13,-0.43,-36.61,1.73,30.28,31.54
68027,0.00,-1.20,-0.32,-31.50,-11.72,8.14,31.64
68037,-0.05,-1.26,-0.30,-22.95,-28.63,-12.37,31.64
68047,-0.09,-1.24,-0.35,-15.26,-44.12,-26.13,31.64
68057,-0.10,-1.18,-0.45,-6.80,-47.31,-28.85,31.59
68067,-0.11,-1.08,-0.53,2.30,-31.56,-15.27,31.68
68077,-0.10,-0.99,-0.60,9.35,-9.27,10.37,31.59
68087,-0.08,-0.96,-0.61,9.61,13.02,33.41,31.49
68097,-0.05,-0.98,-0.60,4.14,25.39,44.41,31.68
68107,-0.05,-1.03,-0.56,-3.29,19.96,41.95,31.49
68117,-0.01,-1.10,-0.54,-12.24,2.04,27.25,31.49
68127,-0.01,-1.17,-0.49,-20.27,-19.19,7.49,31.54
68137,-0.03,-1.21,-0.46,-23.35,-36.20,-8.21,31.64
68147,-0.03,-1.25,-0.46,-20.11,-45.54,-19.02,31.64
68157,-0.03,-1.27,-0.48,-16.21,-47.90,-25.29,31.64
68167,-0.00,-1.22,-0.54,-11.99,-45.02,-22.04,31.45
68177,0.07,-1.15,-0.65,-7.01,-27.48,-9.68,31.54
68187,0.11,-1.14,-0.68,-6.28,-2.23,2.05,31.59
68197,0.06,-1.15,-0.60,-12.09,9.18,7.31,31.68
68207,0.02,-1.19,-0.53,-17.28,7.59,1.70,31.59
68217,0.00,-1.20,-0.51,-18.24,-3.14,-11.37,31.59
68227,-0.02,-1.18,-0.52,-18.20,-17.82,-25.90,31.59
68237,-0.04,-1.10,-0.58,-15.48,-25.53,-34.61,31.59
68247,-0.01,-1.01,-0.67,-13.94,-22.63,-34.27,31.64
68257,-0.02,-0.96,-0.73,-13.02,-7.63,-24.56,31.64
68267,-0.08,-0.97,-0.68,-10.51,12.06,-9.35,31.54
68277,-0.15,-1.02,-0.57,-8.76,24.62,6.06,31.64
68287,-0.19,-1.09,-0.49,-6.71,31.45,17.03,31.54
68297,-0.21,-1.14,-0.43,-4.39,31.37,20.21,31.54
68307,-0.19,-1.15,-0.41,-1.43,26.08,17.84,31.54
68317,-0.14,-1.16,-0.43,3.43,20.13,12.69,31.59
68327,-0.09,-1.16,-0.45,8.33,17.54,6.50,31.49
68337,-0.09,-1.14,-0.46,10.97,14.63,0.97,31.59
68347,-0.08,-1.15,-0.49,12.36,11.39,-2.99,31.59
68357,-0.04,-1.12,-0.53,12.67,9.80,-6.76,31.59
68367,-0.00,-1.11,-0.57,10.68,9.73,-10.11,31.64
68377,0.00,-1.11,-0.58,5.58,11.37,-9.73,31.64
68387,0.00,-1.13,-0.55,1.85,13.43,-8.23,31.64
68397,0.02,-1.18,-0.52,2.32,18.28,-7.89,31.54
68407,-0.01,-1.21,-0.49,5.13,23.68,-7.79,31.59
68417,-0.06,-1.22,-0.45,11.17,24.69,-9.18,31.64
68427,-0.10,-1.21,-0.42,17.96,22.68,-13.83,31.64
68437,-0.17,-1.15,-0.45,23.40,18.40,-16.96,31.59
68447,-0.20,-1.10,-0.49,25.74,13.05,-17.85,31.59
68457,-0.21,-1.04,-0.53,24.40,9.04,-16.24,31.59
68467,-0.20,-0.97,-0.58,20.61,7.20,-11.22,31.59
68477,-0.17,-0.94,-0.62,15.25,6.84,-4.24,31.59
68487,-0.09,-0.92,-0.66,11.08,7.76,2.60,31.64
68497,-0.00,-0.92,-0.69,7.55,16.15,10.05,31.54
68507,0.02,-0.92,-0.67,2.78,26.94,19.54,31.64
68517,-0.01,-0.98,-0.57,-0.63,35.59,27.47,31.64
68527,-0.04,-1.08,-0.43,-1.18,37.95,28.20,31.64
68537,-0.09,-1.14,-0.33,1.33,31.63,22.55,31.59
68547,-0.12,-1.16,-0.29,7.17,21.04,15.63,31.54
68557,-0.13,-1.16,-0.29,18.15,13.57,10.58,31.59
68567,-0.12,-1.12,-0.35,27.34,11.05,7.88,31.68
68577,-0.10,-1.05,-0.44,31.50,11.34,8.05,31.59
68587,-0.07,-0.98,-0.50,28.89,13.23,10.69,31.59
68597,-0.06,-0.95,-0.54,21.63,14.60,13.29,31.49
68607,-0.05,-0.95,-0.48,14.57,14.17,16.00,31.59
68617,-0.03,-0.98,-0.45,11.63,12.74,14.93,31.64
68627,-0.02,-1.02,-0.43,10.95,9.83,11.45,31.64
68637,-0.04,-1.03,-0.42,12.88,4.04,7.47,31.64
68647,-0.04,-1.03,-0.43,16.47,0.32,4.63,31.64
68657,-0.03,-1.03,-0.44,19.56,-0.93,3.13,31.64
68667,-0.01,-1.00,-0.48,21.82,1.02,2.69,31.59
68677,0.02,-0.97,-0.51,23.80,4.66,2.76,31.59
68687,0.03,-0.95,-0.53,23.26,7.82,3.90,31.59
68697,-0.01,-0.95,-0.50,19.81,7.92,6.36,31.59
68707,-0.04,-1.01,-0.42,20.38,-1.19,7.88,31.59
68717,0.01,-1.03,-0.44,21.93,6.63,9.02,31.59
68727,0.05,-1.04,-0.41,26.90,3.86,5.24,31.64
68737,0.05,-1.02,-0.43,33.44,3.87,-0.39,31.64
68747,0.03,-0.98,-0.44,38.38,2.69,-6.30,31.64
68757,-0.01,-0.96,-0.42,40.17,0.02,-9.34,31.45
68767,-0.04,-0.90,-0.46,39.79,4.60,-7.69,31.64
68777,-0.04,-0.88,-0.44,37.08,5.45,-5.38,31.54
68787,-0.01,-0.87,-0.45,33.50,7.76,-4.05,31.59
68797,-0.02,-0.87,-0.40,31.31,6.15,-5.18,31.59
68807,-0.01,-0.88,-0.38,30.50,3.73,-6.85,31.59
68817,-0.02,-0.87,-0.33,30.61,-0.18,-8.37,31.59
68827,0.00,-0.84,-0.38,30.92,9.24,-5.24,31.49
68837,-0.03,-0.85,-0.33,30.12,14.40,-0.17,31.59
68847,-0.05,-0.87,-0.31,29.65,20.90,5.45,31.64
68857,-0.07,-0.89,-0.29,30.08,25.26,9.80,31.54
68867,-0.12,-0.91,-0.25,30.04,24.37,12.41,31.54
68877,-0.12,-0.91,-0.24,29.84,18.60,13.15,31.54
68887,-0.10,-0.88,-0.24,29.11,13.96,11.63,31.68
68897,-0.09,-0.86,-0.24,27.24,9.15,11.08,31.73
68907,-0.10,-0.85,-0.25,26.78,6.02,12.29,31.68
68917,-0.08,-0.84,-0.26,24.95,6.39,15.09,31.59
68927,-0.06,-0.85,-0.29,21.60,9.75,16.89,31.59
68937,-0.07,-0.88,-0.27,15.85,8.90,16.38,31.68
68947,-0.08,-0.93,-0.23,10.61,3.42,12.68,31.59
68957,-0.08,-0.97,-0.19,7.12,-4.81,6.15,31.59
68967,-0.08,-0.98,-0.16,6.30,-14.69,0.85,31.54
68977,-0.06,-0.98,-0.15,9.24,-20.48,-3.03,31.64
68987,-0.02,-0.94,-0.19,13.75,-20.47,-5.27,31.64
68997,0.01,-0.92,-0.24,17.95,-16.37,-5.63,31.64
69007,0.02,-0.88,-0.30,19.35,-10.21,-4.54,31.64
69017,0.01,-0.85,-0.32,17.97,-4.40,-1.53,31.59
69027,-0.01,-0.84,-0.33,13.98,1.19,2.49,31.64
69037,-0.04,-0.85,-0.32,9.27,6.15,7.82,31.59
69047,-0.07,-0.86,-0.24,6.31,4.34,12.23,31.68
69057,-0.06,-0.90,-0.22,5.40,1.82,13.47,31.59
69067,-0.05,-0.92,-0.20,4.89,-2.82,11.09,31.68
69077,-0.02,-0.93,-0.18,5.56,-7.82,5.91,31.59
69087,-0.01,-0.93,-0.20,7.14,-13.18,-0.01,31.68
69097,0.01,-0.92,-0.22,8.88,-10.33,-4.27,31.64
69107,0.01,-0.93,-0.23,10.12,-10.28,-7.93,31.45
69117,0.03,-0.92,-0.27,9.05,-2.50,-10.05,31.64
69127,0.01,-0.93,-0.23,8.73,-3.56,-13.79,31.54
69137,-0.02,-0.93,-0.23,7.76,-3.04,-17.11,31.64
69147,-0.03,-0.91,-0.23,6.53,-3.27,-17.99,31.68
69157,-0.05,-0.90,-0.21,5.21,-3.34,-16.08,31.59
69167,-0.06,-0.92,-0.20,6.27,-2.06,-13.47,31.68
69177,-0.06,-0.92,-0.17,8.02,-0.20,-9.77,31.59
69187,-0.07,-0.91,-0.17,9.21,-0.13,-6.08,31.68
69197,-0.09,-0.90,-0.17,10.81,1.04,-1.32,31.68
69207,-0.10,-0.90,-0.16,11.00,2.24,4.28,31.59
69217,-0.09,-0.91,-0.16,10.29,4.27,9.98,31.64
69227,-0.10,-0.91,-0.15,8.37,5.39,14.63,31.64
69237,-0.10,-0.92,-0.13,8.02,5.73,17.73,31.54
69247,-0.07,-0.92,-0.14,7.01,5.90,20.35,31.64
69257,-0.08,-0.93,-0.14,5.15,2.01,19.78,31.64
69267,-0.07,-0.93,-0.15,2.30,-0.63,17.33,31.73
69277,-0.07,-0.93,-0.15,-1.66,-3.95,13.99,31.59
69287,-0.07,-0.94,-0.14,-5.04,-8.57,10.26,31.49
69297,-0.08,-0.96,-0.12,-7.37,-11.34,7.34,31.68
69307,-0.09,-0.96,-0.11,-8.24,-13.77,6.34,31.59
69317,-0.09,-0.98,-0.09,-6.21,-15.79,6.07,31.59
69327,-0.07,-0.98,-0.10,-1.99,-14.75,6.65,31.68
69337,-0.05,-0.99,-0.12,2.29,-9.01,7.34,31.54
69347,-0.06,-1.00,-0.11,6.09,-5.68,6.66,31.73
69357,-0.08,-1.00,-0.11,10.45,-2.82,5.10,31.64
69367,-0.08,-1.00,-0.12,15.58,-2.44,1.76,31.54
69377,-0.08,-0.99,-0.13,19.17,-3.69,-2.30,31.64
69387,-0.09,-0.96,-0.16,21.95,-4.15,-4.60,31.64
69397,-0.09,-0.94,-0.16,22.07,-7.01,-3.50,31.54
69407,-0.11,-0.93,-0.16,18.51,-6.82,0.49,31.59
69417,-0.12,-0.93,-0.14,14.89,-8.13,5.47,31.59
69427,-0.09,-0.94,-0.13,12.91,-7.56,9.38,31.59
69437,-0.08,-0.95,-0.12,11.29,-7.80,11.46,31.68
69447,-0.05,-0.96,-0.12,10.02,-8.77,12.19,31.59
69457,-0.03,-0.97,-0.15,8.87,-9.33,12.21,31.59
69467,-0.00,-0.97,-0.15,5.90,-8.45,11.76,31.64
69477,-0.01,-0.97,-0.14,4.14,-7.40,11.22,31.54
69487,-0.04,-1.01,-0.11,3.21,-6.00,12.29,31.64
69497,-0.05,-1.03,-0.08,3.13,-6.09,13.55,31.68
69507,-0.05,-1.06,-0.05,5.33,-5.86,13.28,31.64
69517,-0.03,-1.08,-0.04,9.95,-5.61,9.66,31.54
69527,-0.02,-1.07,-0.05,15.49,-5.60,4.18,31.59
69537,-0.01,-1.05,-0.08,21.00,-5.61,-2.32,31.59
69547,-0.01,-1.03,-0.11,24.31,-3.95,-8.10,31.59
69557,-0.03,-1.01,-0.14,24.42,-2.34,-12.55,31.68
69567,-0.06,-0.99,-0.15,21.91,-3.04,-15.06,31.68
69577,-0.07,-0.96,-0.16,18.80,-3.27,-16.08,31.64
69587,-0.11,-0.96,-0.16,16.40,-5.90,-15.11,31.64
69597,-0.11,-0.96,-0.15,14.04,-7.47,-12.90,31.54
69607,-0.11,-0.95,-0.15,12.38,-7.02,-10.35,31.64
69617,-0.09,-0.95,-0.14,11.28,-6.02,-8.39,31.64
69627,-0.08,-0.94,-0.12,10.28,-4.67,-7.01,31.68
69637,-0.08,-0.95,-0.13,9.53,-2.89,-6.53,31.59
69647,-0.06,-0.95,-0.12,8.69,-0.90,-6.66,31.59
69657,-0.07,-0.96,-0.12,6.68,0.65,-6.89,31.59
69667,-0.07,-0.97,-0.11,4.42,0.15,-7.21,31.59
69677,-0.08,-0.98,-0.12,1.50,-0.55,-7.92,31.68
69687,-0.09,-0.97,-0.14,-2.32,-0.73,-7.05,31.68
69697,-0.09,-0.96,-0.13,-6.37,0.43,-3.59,31.64
69707,-0.10,-0.96,-0.14,-10.06,4.30,1.99,31.64
69717,-0.12,-0.97,-0.12,-13.98,7.65,8.70,31.54
69727,-0.14,-1.00,-0.08,-16.92,7.58,14.13,31.54
69737,-0.14,-1.03,-0.08,-17.89,8.50,18.02,31.64
69747,-0.12,-1.05,-0.06,-18.24,9.15,19.28,31.64
69757,-0.11,-1.06,-0.05,-19.17,10.69,18.27,31.68
69767,-0.10,-1.06,-0.05,-22.82,9.61,14.49,31.59
69777,-0.11,-1.06,-0.07,-27.49,6.60,8.11,31.49
69787,-0.11,-1.05,-0.06,-32.69,1.54,1.53,31.59
69797,-0.12,-1.05,-0.05,-36.25,-3.45,-4.11,31.59
69807,-0.10,-1.06,-0.07,-37.89,-5.50,-8.87,31.59
69817,-0.13,-1.06,-0.07,-40.03,-6.00,-11.25,31.64
69827,-0.17,-1.07,-0.03,-40.61,-10.58,-11.89,31.64
69837,-0.15,-1.07,-0.03,-38.73,-13.61,-10.63,31.73
69847,-0.16,-1.08,-0.04,-35.53,-12.31,-7.64,31.64
69857,-0.13,-1.07,-0.05,-30.09,-8.09,-4.65,31.73
69867,-0.11,-1.06,-0.05,-23.21,-3.02,-3.35,31.64
69877,-0.08,-1.03,-0.07,-15.49,-3.50,-4.30,31.59
69887,-0.09,-1.01,-0.11,-9.22,-3.54,-5.95,31.59
69897,-0.10,-0.98,-0.32,-10.34,23.13,-6.11,31.59
69907,-0.03,-0.97,-0.14,-7.74,-2.37,-7.03,31.68
69917,-0.10,-0.97,-0.17,-8.39,-5.85,-8.15,31.68
69927,-0.11,-0.94,-0.18,-10.05,-8.45,-8.85,31.59
69937,-0.09,-0.94,-0.17,-9.60,-7.04,-7.53,31.64
69947,-0.11,-0.93,-0.19,-7.96,-2.99,-5.40,31.73
69957,-0.12,-0.94,-0.16,-7.05,-4.21,-2.51,31.64
69967,-0.11,-0.96,-0.17,-5.97,-3.47,0.21,31.64
69977,-0.10,-0.96,-0.20,-3.40,-3.11,1.77,31.68
69987,-0.06,-0.97,-0.20,-5.49,1.63,2.52,31.64
69997,-0.07,-0.97,-0.20,-6.38,-1.44,1.69,31.59
70007,-0.06,-0.99,-0.21,-6.16,-1.29,-0.08,31.59
70017,-0.07,-0.99,-0.20,-6.16,-0.38,-1.42,31.59
70027,-0.09,-0.99,-0.20,-6.37,-2.48,-1.95,31.49
70037,-0.09,-0.96,-0.20,-6.44,-0.83,-0.53,31.59
70047,-0.11,-0.96,-0.21,-6.46,0.97,1.95,31.49
70057,-0.09,-0.95,-0.20,-6.32,1.84,3.73,31.64
70067,-0.09,-0.96,-0.19,-6.88,1.91,3.98,31.64
70077,-0.09,-0.99,-0.16,-6.53,-0.71,2.42,31.64
70087,-0.10,-0.99,-0.18,-5.21,-0.02,2.21,31.64
70097,-0.10,-1.00,-0.15,-4.85,-0.87,1.40,31.54
70107,-0.09,-1.00,-0.15,-3.66,-2.46,-0.08,31.68
70117,-0.08,-0.99,-0.15,-1.70,-4.00,-2.60,31.59
70127,-0.07,-0.96,-0.14,1.03,-4.64,-4.76,31.68
70137,-0.07,-0.95,-0.15,4.08,-3.75,-4.82,31.59
70147,-0.09,-0.95,-0.14,5.56,-2.60,-3.40,31.68
70157,-0.09,-0.92,-0.15,5.30,-1.18,-2.20,31.59
70167,-0.11,-0.95,-0.14,5.22,2.92,0.89,31.59
70177,-0.10,-0.95,-0.14,4.75,3.59,2.24,31.64
70187,-0.10,-0.97,-0.12,3.97,3.25,2.38,31.54
70197,-0.10,-0.96,-0.12,3.49,0.98,0.73,31.54
70207,-0.11,-0.96,-0.09,3.08,-4.39,-0.83,31.54
70217,-0.08,-0.95,-0.10,1.02,-1.11,-1.92,31.64
70227,-0.07,-0.94,-0.07,0.52,-0.45,-3.47,31.54
70237,-0.08,-0.95,-0.06,2.69,-4.15,-4.34,31.68
70247,-0.08,-0.92,-0.07,5.54,-5.27,-5.77,31.68
70257,-0.08,-0.92,-0.09,8.65,-4.37,-4.56,31.59
70267,-0.09,-0.91,-0.10,10.18,-4.40,-2.15,31.59
70277,-0.09,-0.89,-0.11,11.46,-2.55,2.07,31.68
70287,-0.10,-0.88,-0.11,10.95,-1.58,5.70,31.59
70297,-0.09,-0.88,-0.10,11.34,-0.57,8.63,31.59
70307,-0.08,-0.88,-0.11,11.61,0.77,9.86,31.64
70317,-0.07,-0.89,-0.11,11.83,1.26,8.89,31.54
70327,-0.06,-0.91,-0.10,10.61,-1.22,6.00,31.64
70337,-0.06,-0.93,-0.09,8.97,-6.40,1.44,31.64
70347,-0.04,-0.92,-0.10,6.76,-4.21,-1.60,31.64
70357,-0.05,-0.93,-0.08,6.65,-4.55,-3.54,31.64
70367,-0.05,-0.93,-0.09,7.71,-2.23,-4.27,31.68
70377,-0.07,-0.92,-0.10,8.35,-1.73,-4.16,31.59
70387,-0.08,-0.91,-0.11,8.15,-1.86,-3.35,31.59
70397,-0.09,-0.90,-0.12,7.08,-1.79,-1.37,31.59
70407,-0.09,-0.89,-0.13,4.44,-2.23,0.69,31.68
70417,-0.09,-0.90,-0.14,0.41,-1.88,2.46,31.59
70427,-0.08,-0.91,-0.14,-2.98,-1.79,3.36,31.59
70437,-0.05,-0.93,-0.14,-5.68,-1.42,2.42,31.54
70447,-0.05,-0.95,-0.12,-8.26,-2.08,0.17,31.64
70457,-0.04,-0.97,-0.11,-8.59,-2.53,-2.30,31.64
70467,-0.04,-0.99,-0.09,-8.00,-3.50,-4.56,31.64
70477,-0.03,-1.00,-0.09,-6.21,-3.24,-6.26,31.64
70487,-0.04,-1.01,-0.09,-4.66,-1.95,-7.03,31.64
70497,-0.06,-0.99,-0.10,-3.67,-1.36,-6.08,31.68
70507,-0.07,-0.98,-0.12,-3.69,-1.20,-3.99,31.68
70517,-0.07,-0.99,-0.12,-4.09,-0.09,-1.05,31.59
70527,-0.07,-0.99,-0.10,-5.15,0.11,1.15,31.68
70537,-0.09,-0.99,-0.09,-5.14,0.87,3.29,31.68
70547,-0.07,-1.00,-0.09,-4.45,1.24,4.50,31.68
70557,-0.07,-1.02,-0.07,-3.87,0.92,4.31,31.68
70567,-0.06,-1.02,-0.08,-3.32,1.34,3.67,31.64
70577,-0.06,-1.01,-0.09,-3.15,1.63,2.46,31.64
70587,-0.07,-1.02,-0.11,-3.81,1.73,1.94,31.64
70597,-0.08,-1.02,-0.10,-4.37,1.18,1.79,31.64
70607,-0.08,-1.03,-0.11,-4.65,1.26,2.46,31.73
70617,-0.07,-1.04,-0.10,-5.11,1.32,2.26,31.64
70627,-0.06,-1.05,-0.10,-5.67,2.47,1.51,31.68
70637,-0.04,-1.09,-0.06,-5.99,6.56,0.57,31.68
70647,-0.04,-1.06,-0.08,-3.81,1.96,-1.89,31.68
70657,-0.08,-1.06,-0.06,-2.88,-0.31,-3.08,31.68
70667,-0.08,-1.04,-0.10,-0.89,0.63,-2.83,31.59
70677,-0.09,-1.03,-0.09,-1.02,1.53,-1.80,31.68
70687,-0.09,-1.02,-0.11,-1.62,3.14,-0.32,31.68
70697,-0.09,-1.01,-0.09,-2.80,1.86,-0.34,31.73
70707,-0.08,-1.00,-0.09,-2.55,2.41,-0.07,31.64
70717,-0.08,-1.00,-0.10,-2.32,2.88,0.31,31.64
70727,-0.09,-1.00,-0.09,-3.37,2.79,0.44,31.64
70737,-0.08,-1.00,-0.09,-4.19,2.22,-0.14,31.54
70747,-0.08,-1.01,-0.08,-4.81,1.57,-1.23,31.54
70757,-0.07,-1.01,-0.11,-4.89,1.49,-1.57,31.49
70767,-0.07,-1.01,-0.10,-5.24,2.44,-1.56,31.68
70777,-0.07,-1.02,-0.10,-4.97,3.37,-1.61,31.59
70787,-0.07,-1.02,-0.09,-4.66,3.37,-1.42,31.59
70797,-0.07,-1.03,-0.10,-3.95,3.61,-1.15,31.68
70807,-0.07,-1.03,-0.10,-3.43,3.31,-0.96,31.59
70817,-0.07,-1.03,-0.09,-2.82,3.54,-0.23,31.68
70827,-0.07,-1.02,-0.10,-2.08,3.55,0.76,31.54
70837,-0.07,-1.01,-0.09,-1.05,4.28,1.85,31.64
70847,-0.07,-1.01,-0.10,-0.76,4.62,2.89,31.73
70857,-0.08,-1.00,-0.11,-0.74,5.39,3.97,31.64
70867,-0.08,-1.00,-0.11,-1.59,6.08,4.80,31.64
70877,-0.07,-1.01,-0.11,-2.57,5.86,5.17,31.64
70887,-0.07,-1.01,-0.11,-3.56,6.11,4.94,31.68
70897,-0.07,-1.04,-0.09,-4.33,6.13,3.80,31.59
70907,-0.07,-1.04,-0.08,-4.05,5.61,1.95,31.59
70917,-0.07,-1.04,-0.08,-3.24,5.51,-0.18,31.68
70927,-0.06,-1.04,-0.06,-2.33,5.08,-2.41,31.68
70937,-0.07,-1.04,-0.08,-1.24,4.66,-4.32,31.59
70947,-0.07,-1.03,-0.08,-0.03,4.57,-5.35,31.59
70957,-0.08,-1.03,-0.09,-0.01,4.18,-5.33,31.59
70967,-0.10,-1.02,-0.10,0.05,4.79,-3.79,31.73
70977,-0.10,-1.03,-0.10,-0.18,5.21,-1.89,31.64
70987,-0.11,-1.03,-0.09,-0.85,5.47,-0.44,31.73
70997,-0.10,-1.03,-0.09,-0.90,5.53,0.20,31.54
71007,-0.10,-1.03,-0.08,-0.18,4.93,0.18,31.64
71017,-0.09,-1.03,-0.07,-0.13,4.34,0.01,31.68
71027,-0.09,-1.03,-0.08,0.85,3.81,-0.37,31.64
71037,-0.09,-1.04,-0.09,1.48,3.31,-0.29,31.59
71047,-0.09,-1.04,-0.10,2.37,3.44,0.08,31.68
71057,-0.09,-1.04,-0.10,3.50,4.17,0.85,31.68
71067,-0.09,-1.04,-0.09,3.38,4.94,0.33,31.68
71077,-0.09,-1.04,-0.09,3.65,4.81,-0.83,31.68
71087,-0.08,-1.03,-0.11,3.54,4.43,-2.08,31.59
71097,-0.08,-1.02,-0.10,2.53,4.05,-3.71,31.49
71107,-0.08,-1.01,-0.10,0.95,3.24,-5.24,31.64
71117,-0.09,-1.00,-0.11,0.21,2.34,-5.67,31.64
71127,-0.09,-0.99,-0.10,-0.58,1.84,-5.27,31.64
71137,-0.11,-1.00,-0.11,-1.16,2.28,-3.83,31.64
71147,-0.11,-1.00,-0.11,-2.14,3.20,-1.89,31.68
71157,-0.11,-1.00,-0.08,-3.00,3.27,-0.35,31.73
71167,-0.11,-1.00,-0.08,-3.44,3.15,0.56,31.68
71177,-0.09,-1.00,-0.06,-2.89,2.61,1.76,31.59
71187,-0.12,-0.99,-0.08,-4.06,-0.73,-0.18,31.68
71197,-0.10,-1.01,-0.09,-2.12,2.60,1.55,31.68
71207,-0.09,-1.02,-0.07,-3.31,2.59,1.40,31.59
71217,-0.09,-1.01,-0.07,-2.85,2.58,1.03,31.68
71227,-0.09,-1.03,-0.06,-2.27,2.47,-0.49,31.68
71237,-0.08,-1.02,-0.05,-0.47,4.07,-1.47,31.64
71247,-0.10,-1.01,-0.06,1.47,0.40,-3.12,31.73
71257,-0.04,-1.02,-0.10,0.52,7.18,-0.82,31.54
71267,-0.10,-1.03,-0.08,2.69,-1.90,-3.31,31.64
71277,-0.08,-1.02,-0.09,1.46,3.80,-1.64,31.78
71287,-0.07,-1.02,-0.07,0.61,2.35,-1.88,31.73
71297,-0.07,-1.02,-0.07,0.29,2.36,-2.61,31.73
71307,-0.05,-1.01,-0.09,1.24,3.47,-2.98,31.59
71317,-0.06,-1.02,-0.08,0.62,3.00,-3.56,31.78
71327,-0.06,-1.02,-0.07,-0.13,1.11,-4.87,31.68
71337,-0.07,-1.01,-0.08,-0.41,-0.01,-5.66,31.59
71347,-0.07,-1.01,-0.07,-0.60,-0.31,-5.47,31.68
71357,-0.07,-1.02,-0.06,-0.12,-0.05,-4.88,31.68
71367,-0.06,-1.02,-0.07,0.66,0.60,-3.95,31.64
71377,-0.07,-1.03,-0.06,1.47,1.04,-3.53,31.73
71387,-0.06,-1.02,-0.06,1.66,1.06,-2.86,31.54
71397,-0.06,-1.01,-0.08,1.08,0.99,-2.55,31.73
71407,-0.06,-1.01,-0.07,-0.37,1.63,-2.09,31.68
71417,-0.06,-1.01,-0.07,-1.89,1.89,-1.61,31.54
71427,-0.08,-1.01,-0.07,-3.48,1.67,-1.02,31.73
71437,-0.08,-1.01,-0.08,-4.93,1.30,-0.60,31.68
71447,-0.07,-1.02,-0.07,-6.16,1.16,-0.36,31.59
71457,-0.07,-1.04,-0.04,-6.58,0.46,-0.50,31.59
71467,-0.07,-1.05,-0.04,-4.69,-0.67,-0.76,31.59
71477,-0.07,-1.04,-0.03,-2.08,-1.95,-0.51,31.68
71487,-0.09,-1.05,-0.01,1.31,-8.92,0.37,31.68
71497,-0.05,-1.02,-0.07,1.52,3.67,2.81,31.64
71507,-0.07,-1.04,-0.05,1.95,1.72,3.13,31.73
