Millis,Acce_X,Acce_Y,Acce_Z,Gyro_X,Gyro_Y,Gyro_Z,Temp
35797,0.22,-0.39,0.88,-1.44,-16.49,8.81,30.08
35807,0.22,-0.36,0.86,-2.17,-11.71,10.99,30.08
35817,0.20,-0.35,0.87,-4.43,-6.15,12.02,30.13
35827,0.18,-0.35,0.89,-6.29,-1.34,13.11,30.04
35837,0.15,-0.34,0.93,-7.51,-0.49,14.96,30.13
35847,0.16,-0.35,0.93,-5.28,-1.56,15.57,30.13
35857,0.17,-0.36,0.92,-4.05,-4.92,14.20,30.13
35867,0.19,-0.34,0.94,-4.61,-9.34,11.24,29.99
35877,0.21,-0.34,0.93,-7.85,-12.02,10.15,30.18
35887,0.21,-0.33,0.93,-11.73,-10.08,9.42,30.08
35897,0.22,-0.35,0.97,-13.82,-5.82,8.53,30.08
35907,0.23,-0.38,0.99,-14.47,-1.71,6.98,30.08
35917,0.22,-0.40,1.03,-12.89,-3.19,4.26,30.18
35927,0.21,-0.41,1.03,-9.92,-5.82,3.21,30.04
35937,0.21,-0.42,1.01,-5.71,-6.34,4.12,30.04
35947,0.23,-0.40,1.00,-4.15,-3.53,4.64,30.04
35957,0.22,-0.39,1.00,-5.42,-1.83,4.02,30.04
35967,0.22,-0.37,1.00,-7.77,-1.44,3.95,30.13
35977,0.20,-0.36,1.04,-10.67,-3.08,3.50,30.13
35987,0.21,-0.37,1.06,-10.58,-3.15,3.63,30.08
35997,0.21,-0.38,1.06,-8.12,-0.72,3.31,30.08
36007,0.23,-0.38,1.07,-4.92,0.98,3.45,30.08
36017,0.24,-0.36,1.06,-4.00,2.75,2.17,29.99
36027,0.26,-0.32,1.08,-4.26,1.80,-2.09,30.08
36037,0.27,-0.25,1.10,-6.73,-2.15,-7.54,30.04
36047,0.29,-0.17,1.11,-8.02,-9.66,-13.69,29.94
36057,0.32,-0.07,1.11,-9.39,-17.34,-19.98,30.04
36067,0.35,0.04,1.12,-11.57,-24.37,-26.32,30.13
36077,0.35,0.09,1.15,-15.57,-28.29,-33.04,30.13
36087,0.34,0.12,1.18,-14.93,-29.53,-36.06,29.99
36097,0.33,0.14,1.19,-9.16,-24.82,-33.48,29.99
36107,0.35,0.16,1.18,-2.32,-11.63,-26.61,30.08
36117,0.36,0.19,1.18,0.79,-1.33,-19.19,29.99
36127,0.40,0.24,1.21,2.05,12.40,-12.89,30.08
36137,0.41,0.26,1.24,-0.53,26.93,-9.54,30.08
36147,0.41,0.28,1.35,-2.60,21.07,-14.00,29.99
36157,0.44,0.23,1.37,-2.27,15.05,-20.56,30.13
36167,0.40,0.15,1.37,2.43,7.24,-28.32,30.04
36177,0.40,0.09,1.39,12.40,7.33,-33.45,30.13
36187,0.40,0.07,1.37,26.79,9.60,-31.18,30.04
36197,0.41,0.07,1.30,37.51,13.18,-30.44,30.04
36207,0.44,0.07,1.21,34.85,7.33,-29.04,30.04
36217,0.53,0.03,1.12,29.45,18.50,-32.43,30.08
36227,0.48,0.01,1.11,24.53,2.27,-33.31,30.08
36237,0.55,0.02,0.99,16.96,4.06,-32.66,29.99
36247,0.60,-0.02,0.96,10.46,8.18,-30.08,30.08
36257,0.62,-0.12,0.91,7.13,21.85,-23.45,30.08
36267,0.60,-0.18,0.95,2.53,39.01,-21.88,30.08
36277,0.49,-0.26,1.00,2.69,55.36,-22.17,30.04
36287,0.37,-0.29,1.10,2.60,56.90,-26.73,30.04
36297,0.23,-0.37,1.11,5.34,54.06,-29.73,30.04
36307,0.11,-0.37,1.22,9.69,29.80,-28.35,30.13
36317,0.12,-0.37,1.16,16.46,8.24,-24.67,30.13
36327,0.16,-0.37,1.03,24.66,0.76,-17.56,30.04
36337,0.24,-0.35,0.87,29.47,7.02,-7.94,30.08
36347,0.26,-0.35,0.79,27.39,25.11,0.81,30.08
36357,0.26,-0.36,0.78,17.97,46.49,5.45,30.08
36367,0.19,-0.36,0.86,7.11,44.56,5.10,29.99
36377,0.16,-0.42,0.91,-1.65,30.61,-2.58,29.99
36387,0.11,-0.48,0.98,-6.98,-8.03,-13.65,30.04
36397,0.15,-0.47,0.91,-13.18,-31.97,-19.39,30.13
36407,0.17,-0.44,0.84,-8.95,-43.77,-17.66,30.13
36417,0.22,-0.44,0.74,-0.55,-39.79,-6.76,30.04
36427,0.28,-0.41,0.63,-3.89,-18.66,7.24,30.13
36437,0.34,-0.39,0.61,-9.36,4.26,15.24,30.08
36447,0.33,-0.41,0.61,-21.42,21.89,16.82,30.08
36457,0.28,-0.46,0.68,-35.39,22.95,11.97,30.08
36467,0.24,-0.52,0.75,-43.86,12.52,3.63,30.08
36477,0.16,-0.56,0.81,-54.81,-0.09,-3.88,30.08
36487,0.13,-0.58,0.84,-54.02,-4.20,-6.29,30.08
36497,0.06,-0.60,0.88,-44.64,3.60,-0.55,30.08
36507,0.04,-0.60,0.90,-30.31,13.01,9.34,30.04
36517,0.05,-0.60,0.92,-15.15,15.60,16.61,30.04
36527,0.11,-0.62,0.86,-8.90,10.56,13.22,30.04
36537,0.21,-0.69,0.87,-11.16,-4.79,-1.51,30.13
36547,0.24,-0.72,0.89,-12.17,-25.42,-17.44,30.13
36557,0.22,-0.67,0.81,-12.61,-34.63,-25.02,30.04
36567,0.28,-0.63,0.78,-8.27,-27.89,-19.53,30.08
36577,0.27,-0.56,0.78,-5.11,-9.50,-11.24,29.99
36587,0.26,-0.59,0.79,-9.89,13.74,-3.98,30.08
36597,0.18,-0.49,0.84,-13.56,13.88,3.16,30.08
36607,0.15,-0.48,0.86,-14.32,4.55,6.93,30.08
36617,0.19,-0.49,0.82,-15.69,-1.95,8.24,30.04
36627,0.21,-0.52,0.82,-16.76,-1.57,6.66,30.04
36637,0.16,-0.56,0.84,-17.91,1.77,6.26,30.13
36647,0.07,-0.56,0.86,-16.26,11.86,11.19,30.04
36657,0.09,-0.55,0.84,-8.43,22.53,19.63,29.99
36667,0.16,-0.56,0.83,-5.92,33.25,22.44,30.04
36677,0.16,-0.51,0.81,-10.20,42.34,22.55,30.08
36687,0.07,-0.36,0.81,-17.66,53.51,26.11,30.08
36697,0.01,-0.42,0.93,-32.67,55.50,33.79,30.08
36707,-0.04,-0.52,1.08,-39.86,51.04,36.27,30.08
36717,-0.01,-0.62,1.19,-34.20,51.16,35.65,30.08
36727,0.01,-0.68,1.28,-21.54,45.13,33.10,29.99
36737,0.07,-0.69,1.30,-9.39,36.87,31.65,30.04
36747,0.17,-0.64,1.19,-0.56,31.89,29.62,30.04
36757,0.27,-0.62,1.11,7.48,43.24,30.05,30.04
36767,0.39,-0.58,0.95,11.59,64.50,28.78,30.13
36777,0.44,-0.57,0.88,11.66,85.85,24.44,30.04
36787,0.41,-0.56,0.84,6.50,105.33,19.39,30.08
36797,0.31,-0.59,0.92,3.07,108.24,13.02,30.08
36807,0.17,-0.62,1.03,4.61,93.18,-0.92,30.18
36817,0.05,-0.66,1.02,13.16,74.17,-12.50,30.08
36827,-0.12,-0.65,0.99,18.17,58.89,-18.75,30.08
36837,-0.16,-0.54,0.91,22.89,52.14,-15.27,29.99
36847,-0.14,-0.47,0.83,25.71,48.29,-8.93,29.99
36857,-0.13,-0.44,0.84,17.05,45.11,-4.78,30.13
36867,-0.11,-0.46,0.89,10.98,41.88,-6.03,30.04
36877,-0.14,-0.48,1.00,8.53,37.07,-8.46,30.04
36887,-0.15,-0.48,1.07,11.85,33.05,-8.31,30.04
36897,-0.13,-0.52,1.14,19.71,33.95,-9.51,30.04
36907,-0.15,-0.55,1.19,22.38,21.05,-12.53,30.04
36917,-0.18,-0.53,1.12,21.22,15.51,-14.43,30.08
36927,-0.19,-0.46,1.15,18.44,10.06,-13.42,30.08
36937,-0.18,-0.45,1.17,20.14,10.95,-10.15,30.08
36947,-0.13,-0.48,1.16,20.76,13.59,-6.69,30.08
36957,-0.02,-0.53,1.18,21.15,17.34,-8.17,30.08
36967,0.00,-0.60,1.17,26.85,19.54,-15.79,30.08
36977,-0.06,-0.52,1.12,29.86,19.13,-18.17,30.04
36987,-0.11,-0.48,1.09,31.98,22.44,-17.24,30.13
36997,-0.15,-0.43,1.05,31.01,28.32,-15.80,30.04
37007,-0.24,-0.43,1.01,26.38,26.27,-16.63,30.08
37017,-0.27,-0.37,0.89,24.73,30.09,-13.31,30.13
37027,-0.23,-0.28,0.75,19.88,42.46,-4.82,30.13
37037,-0.17,-0.25,0.69,12.81,55.95,4.03,29.99
37047,-0.07,-0.30,0.72,3.47,60.99,3.79,30.08
37057,-0.03,-0.40,0.85,-4.89,50.75,-6.69,30.08
37067,-0.07,-0.40,0.94,-8.11,34.75,-15.07,30.08
37077,-0.11,-0.44,1.01,-5.02,23.51,-17.25,30.08
37087,-0.20,-0.45,1.05,-0.82,16.67,-17.24,30.04
37097,-0.25,-0.36,1.01,1.83,14.79,-16.02,30.04
37107,-0.35,-0.28,0.98,-4.64,12.35,-7.60,30.13
37117,-0.33,-0.24,0.95,1.47,7.63,4.67,30.04
37127,-0.20,-0.26,0.85,-1.92,13.54,10.37,30.13
37137,-0.08,-0.29,0.83,-8.15,16.15,9.37,30.08
37147,-0.07,-0.30,0.90,-17.25,17.88,7.02,30.08
37157,-0.10,-0.36,1.02,-17.18,12.50,6.31,30.08
37167,-0.09,-0.39,1.06,-18.20,11.01,5.68,29.99
37177,-0.09,-0.48,1.18,-15.88,3.57,2.73,30.08
37187,-0.10,-0.48,1.21,-7.69,-1.89,-0.20,29.99
37197,-0.10,-0.46,1.19,-0.56,-7.82,0.00,30.08
37207,-0.09,-0.42,1.14,4.99,-11.01,1.08,30.08
37217,-0.03,-0.38,1.05,5.68,-11.21,1.05,30.04
37227,0.01,-0.37,0.99,2.41,-7.63,-1.10,30.04
37237,-0.01,-0.35,0.95,-1.05,-2.93,-1.66,30.04
37247,-0.06,-0.34,0.93,-3.45,-2.17,-1.73,30.04
37257,-0.10,-0.32,0.92,-4.17,-3.57,-1.91,30.13
37267,-0.10,-0.30,0.88,-5.01,-5.50,-1.80,30.08
37277,-0.13,-0.28,0.88,-7.16,-2.32,0.81,30.08
37287,-0.15,-0.33,0.94,-8.02,-0.21,3.86,30.08
37297,-0.16,-0.38,1.00,-7.89,-4.05,4.14,30.18
37307,-0.16,-0.40,1.06,-6.18,-10.81,2.50,30.08
37317,-0.12,-0.40,1.04,-0.67,-15.85,2.55,30.18
37327,-0.07,-0.35,0.98,2.40,-15.45,1.21,30.08
37337,-0.06,-0.34,0.94,-1.40,-17.22,0.06,30.04
37347,-0.06,-0.35,0.94,-2.60,-15.10,0.21,30.04
37357,-0.06,-0.35,0.93,-6.05,-14.29,0.53,30.04
37367,-0.04,-0.37,0.93,-7.79,-14.18,-1.27,30.13
37377,-0.05,-0.35,0.91,-9.33,-14.06,-2.78,30.04
37387,-0.03,-0.35,0.90,-9.36,-10.53,-2.15,30.13
37397,-0.04,-0.38,0.96,-10.05,-6.12,-4.12,30.08
37407,-0.07,-0.42,1.02,-10.00,-6.98,-6.58,30.08
37417,-0.13,-0.47,1.06,-6.31,-14.34,-9.11,30.08
37427,-0.15,-0.47,1.04,-0.50,-22.47,-10.69,30.08
37437,-0.14,-0.41,0.95,1.97,-27.57,-8.17,30.18
37447,-0.07,-0.36,0.88,0.35,-24.66,-3.92,30.08
37457,-0.04,-0.37,0.88,-3.51,-14.20,1.57,30.13
37467,-0.06,-0.37,0.94,-4.92,-1.53,7.34,30.04
37477,-0.11,-0.41,1.03,-3.34,3.63,8.32,30.04
37487,-0.13,-0.43,1.07,-2.03,-0.35,4.69,30.13
37497,-0.15,-0.43,1.07,-5.01,-10.69,0.50,30.04
37507,-0.10,-0.43,1.07,-6.40,-19.66,-2.24,30.13
37517,-0.04,-0.44,1.08,-8.75,-23.21,-2.90,30.13
37527,0.03,-0.47,1.12,-12.05,-27.02,-5.85,30.08
37537,0.07,-0.52,1.17,-10.66,-32.02,-15.57,30.08
37547,0.06,-0.49,1.11,-8.35,-37.97,-24.66,30.08
37557,0.06,-0.45,1.07,-4.99,-44.37,-30.73,29.99
37567,0.09,-0.42,1.00,-6.93,-48.63,-33.82,30.08
37577,0.08,-0.36,0.94,-18.98,-52.96,-39.37,30.18
37587,0.04,-0.32,0.93,-39.62,-64.79,-48.47,30.04
37597,-0.03,-0.32,0.98,-65.30,-87.57,-60.55,30.04
37607,-0.15,-0.34,1.02,-85.34,-113.18,-71.98,30.13
37617,-0.13,-0.44,1.04,-84.09,-132.69,-72.64,30.04
37627,0.03,-0.52,0.95,-66.15,-134.08,-71.83,30.13
37637,0.21,-0.56,0.82,-43.01,-104.29,-63.71,30.13
37647,0.35,-0.52,0.74,-21.74,-56.50,-54.47,29.99
37657,0.36,-0.48,0.78,-15.65,-13.27,-45.36,29.99
37667,0.30,-0.45,0.95,-19.80,2.63,-43.60,30.18
37677,0.23,-0.47,1.02,-19.63,-2.73,-46.96,30.08
37687,0.18,-0.47,1.02,-18.55,-15.02,-48.49,29.99
37697,0.15,-0.49,1.04,-15.11,-23.73,-47.21,30.08
37707,0.14,-0.53,1.07,-7.39,-24.55,-44.31,30.04
37717,0.14,-0.55,1.07,1.57,-26.38,-41.34,30.13
37727,0.09,-0.53,1.03,2.12,-20.09,-37.92,30.22
37737,0.11,-0.52,1.04,6.43,-17.44,-32.46,29.94
37747,0.15,-0.47,1.02,12.02,-14.82,-29.92,30.08
37757,0.18,-0.42,0.99,17.05,-14.61,-29.25,30.13
37767,0.17,-0.38,0.94,16.92,-15.36,-28.12,30.08
37777,0.16,-0.37,0.95,15.56,-19.16,-25.59,30.08
37787,0.18,-0.39,0.93,14.87,-17.77,-19.94,30.18
37797,0.18,-0.43,0.94,9.42,-14.58,-14.55,30.08
37807,0.19,-0.48,0.97,5.97,-7.73,-8.75,30.08
37817,0.21,-0.53,1.06,8.12,-4.34,-4.64,30.08
37827,0.22,-0.57,1.15,15.22,-1.25,-1.91,29.99
37837,0.22,-0.62,1.17,29.54,-0.26,0.37,30.04
37847,0.23,-0.59,1.17,54.56,20.95,9.53,30.04
37857,0.20,-0.58,1.13,69.08,17.97,14.09,30.04
37867,0.14,-0.57,1.18,76.41,12.03,15.59,30.13
37877,0.00,-0.43,1.11,76.67,-23.34,14.05,30.08
37887,0.07,-0.23,0.88,56.24,-33.69,12.52,30.13
37897,0.12,-0.13,0.76,13.73,-54.96,7.47,30.08
37907,0.19,-0.10,0.77,7.48,-35.73,15.56,29.99
37917,0.19,-0.15,0.80,9.37,-17.39,31.68,29.99
37927,0.23,-0.22,0.87,3.50,0.08,42.69,30.08
37937,0.27,-0.25,0.92,3.04,10.00,48.06,29.99
37947,0.29,-0.28,0.94,-0.55,15.21,46.12,30.18
37957,0.30,-0.33,0.92,-2.27,13.79,39.79,30.13
37967,0.25,-0.35,0.93,-8.82,11.98,30.72,30.13
37977,0.23,-0.34,0.95,-12.95,10.73,25.63,30.13
37987,0.20,-0.30,0.97,-8.76,4.41,26.18,30.04
37997,0.24,-0.33,0.93,-5.34,3.86,25.76,30.04
38007,0.32,-0.33,0.88,-9.83,1.98,20.70,30.08
38017,0.40,-0.35,0.79,-22.18,4.41,8.93,29.99
38027,0.41,-0.37,0.77,-40.63,5.48,-1.39,30.08
38037,0.40,-0.40,0.82,-57.65,6.06,-6.32,30.08
38047,0.36,-0.41,0.85,-64.20,13.15,-4.76,30.08
38057,0.34,-0.47,0.99,-57.15,26.34,-0.63,30.18
38067,0.30,-0.53,1.05,-41.94,36.78,3.79,30.08
38077,0.28,-0.51,1.07,-23.48,45.24,7.13,30.13
38087,0.28,-0.47,1.05,-8.05,47.88,5.36,30.13
38097,0.25,-0.48,1.02,3.01,41.25,-0.76,30.13
38107,0.24,-0.42,0.97,6.21,31.88,-7.76,30.04
38117,0.23,-0.38,0.93,3.97,23.01,-13.71,30.13
38127,0.21,-0.36,0.91,-3.80,22.00,-17.71,30.18
38137,0.15,-0.38,1.03,-11.74,23.73,-17.91,29.99
38147,0.11,-0.41,1.12,-11.45,22.60,-18.12,30.08
38157,0.09,-0.43,1.15,-6.75,22.26,-17.63,30.08
38167,0.10,-0.41,1.14,2.96,12.24,-19.11,30.08
38177,0.14,-0.36,1.03,9.85,5.60,-21.94,30.18
38187,0.18,-0.30,0.91,13.08,2.47,-23.10,30.13
38197,0.20,-0.26,0.85,13.02,0.93,-22.46,30.13
38207,0.22,-0.23,0.78,5.08,11.27,-18.27,30.13
38217,0.19,-0.29,0.84,-3.24,18.24,-13.45,30.04
38227,0.11,-0.28,0.93,-10.90,18.79,-10.09,30.08
38237,0.08,-0.28,1.04,-10.89,19.83,-8.60,30.04
38247,0.06,-0.29,1.07,-4.23,18.78,-6.90,29.99
38257,0.06,-0.28,1.11,1.57,16.43,-6.17,30.08
38267,0.08,-0.25,1.08,6.87,11.66,-6.15,29.99
38277,0.10,-0.22,1.03,9.05,11.24,-6.35,30.18
38287,0.12,-0.22,1.01,4.87,10.84,-5.97,30.18
38297,0.11,-0.21,1.01,0.11,12.58,-4.00,30.08
38307,0.07,-0.21,1.07,-0.58,6.02,-0.67,30.04
38317,0.08,-0.19,1.02,-2.32,15.21,2.67,30.13
38327,0.06,-0.24,1.06,-2.76,8.67,4.06,30.04
38337,0.07,-0.25,1.08,-3.88,1.71,3.97,30.13
38347,0.09,-0.25,1.09,-4.63,-7.80,2.20,30.04
38357,0.12,-0.25,1.09,-1.66,-18.63,2.61,29.99
38367,0.23,-0.20,0.95,-1.77,-3.47,4.50,30.08
38377,0.22,-0.22,0.97,0.18,-0.12,5.50,30.08
38387,0.22,-0.25,0.96,0.31,11.07,7.25,30.08
38397,0.18,-0.26,0.98,-1.97,13.48,8.52,29.99
38407,0.16,-0.27,1.02,-5.25,13.31,7.92,30.08
38417,0.14,-0.28,1.06,-9.57,8.06,5.74,30.13
38427,0.13,-0.29,1.07,-11.04,2.92,3.86,30.04
38437,0.13,-0.29,1.05,-10.14,2.06,4.60,30.04
38447,0.13,-0.29,1.04,-7.28,4.00,7.28,30.13
38457,0.12,-0.30,1.04,-3.97,9.40,10.89,30.04
38467,0.10,-0.31,1.04,1.45,13.45,14.43,30.13
38477,0.11,-0.28,1.00,4.76,14.12,17.04,30.13
38487,0.11,-0.26,0.96,2.46,10.84,17.27,30.18
38497,0.13,-0.24,0.94,-3.76,4.11,16.38,30.18
38507,0.13,-0.22,0.94,-10.60,1.68,16.52,29.99
38517,0.11,-0.24,0.96,-17.39,3.33,18.56,30.08
38527,0.08,-0.27,1.01,-18.67,8.24,22.00,30.08
38537,0.06,-0.29,1.04,-18.66,13.27,25.79,30.08
38547,0.07,-0.31,1.04,-18.96,14.40,27.42,30.04
38557,0.09,-0.31,1.02,-18.03,17.44,27.66,30.04
38567,0.12,-0.32,1.03,-15.36,18.58,24.72,30.13
38577,0.13,-0.34,1.06,-12.72,14.81,20.53,30.18
38587,0.16,-0.35,1.08,-8.18,10.34,13.80,30.04
38597,0.20,-0.34,1.04,-3.66,5.89,6.21,30.08
38607,0.20,-0.28,0.97,-1.05,5.97,3.50,30.08
38617,0.19,-0.26,0.93,-1.65,11.19,5.59,29.99
38627,0.18,-0.25,0.93,-4.23,19.45,10.63,30.08
38637,0.16,-0.25,0.95,-7.36,27.51,14.38,30.18
38647,0.14,-0.28,0.98,-11.65,31.62,17.45,30.08
38657,0.14,-0.30,1.02,-12.06,29.42,16.56,30.13
38667,0.14,-0.32,1.05,-12.03,25.86,13.47,30.04
38677,0.12,-0.35,1.11,-9.77,20.64,9.37,30.13
38687,0.09,-0.37,1.17,-6.69,14.89,5.28,30.04
38697,0.06,-0.38,1.20,-4.38,8.23,2.35,30.04
38707,0.04,-0.39,1.20,-0.93,1.40,0.35,30.08
38717,0.04,-0.36,1.16,3.66,-1.95,-0.17,29.99
38727,0.04,-0.34,1.12,7.33,-2.76,1.77,30.08
38737,0.04,-0.32,1.07,9.60,-2.61,4.92,30.08
38747,0.05,-0.28,1.02,10.78,-0.47,9.89,30.08
38757,0.08,-0.27,0.97,11.02,2.61,14.43,30.08
38767,0.11,-0.28,0.96,9.48,3.94,16.27,30.08
38777,0.12,-0.28,0.96,7.54,3.80,16.92,30.04
38787,0.13,-0.28,0.92,5.54,2.11,16.70,30.13
38797,0.13,-0.28,0.94,1.82,-0.21,15.91,30.13
38807,0.13,-0.25,0.93,0.23,-3.89,14.03,30.13
38817,0.10,-0.29,0.96,-5.02,1.94,13.15,30.04
38827,0.07,-0.30,1.00,-6.35,0.92,13.79,30.13
38837,0.05,-0.30,1.00,-5.60,1.60,14.64,30.08
38847,0.05,-0.30,1.00,-4.37,2.17,16.50,30.18
38857,0.05,-0.31,1.00,-2.76,3.50,18.27,29.99
38867,0.06,-0.31,0.96,-1.74,4.38,19.34,30.08
38877,0.04,-0.24,0.96,-1.21,-3.79,19.44,30.08
38887,0.03,-0.30,0.98,-5.30,6.27,15.66,30.08
38897,-0.01,-0.28,1.03,-7.24,0.03,12.55,30.13
38907,-0.06,-0.25,1.05,-7.05,-5.30,10.32,30.13
38917,-0.12,-0.23,1.06,-7.51,-11.10,10.95,30.13
38927,-0.16,-0.21,1.08,-10.18,-14.92,14.78,30.04
38937,-0.16,-0.22,1.08,-12.06,-13.92,21.94,30.13
38947,-0.15,-0.24,1.10,-14.99,-8.08,30.09,30.13
38957,-0.09,-0.29,1.12,-17.82,-1.19,37.39,30.08
38967,-0.04,-0.32,1.13,-20.87,1.42,40.75,30.08
38977,-0.01,-0.37,1.15,-22.61,3.89,39.76,29.99
38987,0.03,-0.41,1.16,-23.83,-0.63,34.81,30.08
38997,0.07,-0.45,1.14,-24.02,-10.32,27.71,29.99
39007,0.11,-0.45,1.10,-23.88,-20.50,19.56,30.08
39017,0.14,-0.44,1.03,-23.21,-27.42,15.56,30.13
39027,0.19,-0.41,0.96,-19.97,-28.79,16.23,30.13
39037,0.25,-0.39,0.89,-15.71,-21.48,20.47,30.13
39047,0.29,-0.37,0.85,-11.62,-10.21,26.24,30.04
39057,0.30,-0.34,0.83,-6.96,4.43,30.78,30.08
39067,0.29,-0.33,0.83,-3.40,13.95,31.36,30.18
39077,0.29,-0.32,0.81,-1.31,19.42,28.38,30.08
39087,0.25,-0.29,0.83,-3.21,18.18,20.47,30.08
39097,0.16,-0.27,0.87,-9.10,9.80,13.69,30.08
39107,0.12,-0.25,0.90,-13.65,0.66,9.33,29.99
39117,0.09,-0.24,0.94,-17.69,-4.75,7.80,30.13
39127,0.07,-0.24,0.98,-17.27,-6.15,8.21,30.04
39137,0.05,-0.24,1.01,-13.08,-5.36,9.66,30.04
39147,0.03,-0.27,1.03,-7.69,-4.41,13.74,30.13
39157,0.05,-0.27,1.04,-0.76,-4.14,15.92,30.04
39167,0.05,-0.27,1.04,4.64,-3.42,17.83,30.04
39177,0.06,-0.27,1.03,6.55,-5.10,18.40,30.08
39187,0.08,-0.25,1.00,5.19,-8.35,16.60,30.08
39197,0.08,-0.25,0.98,-1.92,-13.91,13.22,30.08
39207,0.09,-0.27,1.01,-10.46,-22.66,9.39,30.18
39217,0.11,-0.28,1.02,-16.43,-30.49,3.60,30.08
39227,0.12,-0.31,1.04,-18.27,-34.78,-1.36,29.99
39237,0.12,-0.31,1.08,-14.58,-35.30,-3.89,29.99
39247,0.11,-0.31,1.09,-7.05,-30.73,-3.59,30.13
39257,0.09,-0.30,1.10,1.25,-22.53,0.08,30.04
39267,0.09,-0.28,1.12,7.97,-14.96,2.93,29.94
39277,0.05,-0.26,1.12,11.45,-10.64,4.41,30.13
39287,0.04,-0.24,1.09,11.24,-10.63,4.85,30.13
39297,0.03,-0.22,1.10,8.58,-14.98,3.77,30.13
39307,0.04,-0.20,1.09,4.15,-20.03,1.98,30.18
39317,0.04,-0.21,1.10,-1.57,-24.55,-0.09,29.99
39327,0.06,-0.23,1.11,-4.98,-29.04,-2.08,30.08
39337,0.09,-0.25,1.10,-6.37,-30.55,-2.96,30.18
39347,0.12,-0.27,1.09,-5.19,-26.98,0.40,30.08
39357,0.14,-0.28,1.08,-0.40,-17.15,6.08,30.08
39367,0.16,-0.32,1.08,5.76,-5.77,12.60,30.04
39377,0.17,-0.34,1.08,10.21,4.38,17.27,30.04
39387,0.19,-0.36,1.06,12.50,9.50,17.59,30.04
39397,0.19,-0.38,1.06,12.79,8.31,15.04,30.04
39407,0.19,-0.38,1.01,11.01,4.75,11.69,30.18
39417,0.21,-0.37,0.99,7.85,-0.03,8.31,30.04
39427,0.21,-0.37,0.96,3.68,-1.63,5.25,30.13
39437,0.22,-0.38,0.97,-1.07,-3.16,2.11,30.08
39447,0.21,-0.39,0.97,-3.69,-4.27,-0.90,29.99
39457,0.20,-0.40,0.97,-4.61,-5.27,-2.78,29.99
39467,0.19,-0.40,0.97,-3.10,-5.45,-3.82,30.18
39477,0.19,-0.39,0.97,-0.64,-3.68,-5.01,30.08
39487,0.18,-0.38,0.97,1.11,-0.78,-5.13,30.04
39497,0.15,-0.36,0.97,1.98,3.15,-4.31,30.13
39507,0.13,-0.36,0.99,2.23,6.27,-2.87,30.04
39517,0.11,-0.35,1.02,1.36,7.48,-2.98,30.04
39527,0.09,-0.34,1.03,-0.35,4.66,-4.72,30.13
39537,0.07,-0.34,1.04,-2.32,-3.82,-7.05,30.08
39547,0.06,-0.33,1.07,-3.79,-14.82,-8.84,30.08
39557,0.09,-0.29,1.00,-6.31,-10.81,-8.38,30.08
39567,0.09,-0.31,1.01,-4.47,-10.93,-6.93,29.99
39577,0.11,-0.30,0.99,-2.84,-5.21,-3.89,30.08
39587,0.10,-0.31,0.98,-1.62,-1.57,-0.23,30.18
39597,0.11,-0.31,0.97,-2.23,1.13,2.14,30.08
39607,0.12,-0.31,0.98,-3.85,1.16,2.09,30.04
39617,0.13,-0.32,0.98,-7.19,-0.15,1.59,30.13
39627,0.12,-0.33,0.99,-9.69,-2.24,1.57,30.13
39637,0.14,-0.34,1.01,-10.75,-2.34,2.47,30.04
39647,0.14,-0.35,1.03,-9.77,-0.85,3.15,30.04
39657,0.15,-0.38,1.03,-7.18,0.40,2.46,30.13
39667,0.14,-0.39,1.05,-3.57,-1.24,1.74,30.08
39677,0.15,-0.38,1.03,0.98,-6.64,1.85,30.18
39687,0.17,-0.36,0.97,1.85,0.53,2.63,30.08
39697,0.16,-0.36,0.99,1.92,0.32,4.49,30.08
39707,0.16,-0.35,0.98,0.26,4.02,5.92,30.18
39717,0.15,-0.36,0.98,-2.24,5.59,6.20,30.08
39727,0.14,-0.38,1.00,-3.86,3.98,5.92,30.04
39737,0.13,-0.39,1.03,-4.29,1.45,4.96,30.13
39747,0.12,-0.40,1.04,-3.25,-1.40,3.88,30.13
39757,0.12,-0.41,1.05,-1.63,-3.40,3.44,30.13
39767,0.12,-0.41,1.03,-0.11,-5.44,2.64,30.04
39777,0.13,-0.39,1.01,0.84,-5.53,2.75,30.13
39787,0.14,-0.38,0.99,1.94,-5.10,3.74,30.08
39797,0.14,-0.38,0.98,2.56,-3.24,4.81,30.08
39807,0.15,-0.37,0.98,2.12,-1.37,5.69,30.08
39817,0.15,-0.36,0.98,0.78,-1.16,4.60,30.08
39827,0.15,-0.37,0.98,-1.16,-2.09,2.95,30.08
39837,0.15,-0.36,0.96,-2.73,-4.06,1.37,29.99
39847,0.15,-0.36,0.98,-3.47,-7.82,-0.24,30.04
39857,0.15,-0.35,0.97,-4.35,-8.79,-1.48,30.13
39867,0.16,-0.34,0.96,-4.37,-6.24,-1.77,30.04
39877,0.16,-0.33,0.96,-3.39,-1.28,-0.73,30.04
39887,0.14,-0.32,1.00,-2.40,-0.20,0.12,30.08
39897,0.14,-0.32,1.00,-2.82,0.09,2.08,30.08
39907,0.14,-0.31,1.02,-3.24,-1.60,3.02,29.99
39917,0.16,-0.31,1.02,-3.82,-1.18,2.66,29.99
39927,0.18,-0.32,1.02,-3.76,-1.57,2.27,30.18
39937,0.19,-0.32,1.02,-3.31,-1.63,0.64,30.08
39947,0.20,-0.31,1.01,-3.08,-1.77,-0.72,30.08
39957,0.22,-0.31,1.00,-3.54,-2.09,-2.93,30.04
39967,0.21,-0.30,0.99,-4.92,-2.95,-5.02,30.13
39977,0.20,-0.30,0.99,-6.40,-3.24,-6.69,30.13
39987,0.21,-0.30,1.00,-7.63,-4.73,-7.11,30.04
39997,0.20,-0.30,1.01,-8.52,-5.60,-7.05,30.04
40007,0.22,-0.29,1.02,-8.67,-2.60,-7.77,30.04
40017,0.23,-0.28,1.03,-6.99,0.24,-8.44,30.08
40027,0.23,-0.27,1.04,-5.59,1.86,-9.89,29.99
40037,0.23,-0.28,1.06,-3.89,1.02,-12.63,30.08
40047,0.23,-0.29,1.05,-2.95,-0.66,-14.79,30.18
40057,0.21,-0.28,1.05,-2.40,-3.45,-16.24,30.08
40067,0.21,-0.26,1.04,-3.97,-5.91,-17.79,30.04
40077,0.25,-0.28,1.00,-3.01,-2.44,-17.89,30.13
40087,0.22,-0.29,1.04,-2.24,-2.55,-16.90,30.13
40097,0.22,-0.30,1.03,-1.66,-1.77,-18.21,30.13
40107,0.22,-0.31,1.04,0.05,-1.57,-19.60,30.08
40117,0.20,-0.31,1.02,1.40,-3.91,-21.10,30.13
40127,0.19,-0.30,1.01,2.23,-5.48,-22.73,30.04
40137,0.17,-0.30,0.99,1.85,-6.69,-22.84,30.08
40147,0.16,-0.29,0.97,0.61,-5.62,-21.74,30.08
40157,0.15,-0.31,0.97,-0.93,-3.79,-20.18,29.99
40167,0.17,-0.33,0.96,-1.92,-1.27,-18.17,30.18
40177,0.18,-0.34,0.94,-2.95,0.70,-17.25,30.08
40187,0.17,-0.36,0.94,-4.79,1.01,-18.34,30.04
40197,0.16,-0.38,0.95,-6.53,0.47,-19.57,30.13
40207,0.15,-0.38,0.96,-8.12,-1.15,-20.53,30.13
40217,0.14,-0.37,0.96,-10.58,-2.46,-20.76,30.13
40227,0.14,-0.37,0.97,-12.15,-4.08,-20.69,30.13
40237,0.13,-0.36,0.97,-13.24,-5.36,-20.23,30.18
40247,0.13,-0.35,0.99,-14.27,-7.02,-19.28,29.99
40257,0.14,-0.34,0.98,-16.18,-7.74,-18.41,30.08
40267,0.16,-0.34,0.98,-17.80,-6.26,-16.52,30.18
40277,0.19,-0.35,0.99,-19.33,-2.67,-14.18,29.99
40287,0.22,-0.35,1.02,-19.77,1.85,-13.22,30.08
40297,0.20,-0.36,1.04,-18.17,-0.49,-11.88,30.13
40307,0.27,-0.40,1.07,-16.92,7.01,-13.04,29.94
40317,0.30,-0.44,1.08,-13.59,7.79,-17.53,30.13
40327,0.33,-0.48,1.09,-11.65,7.89,-24.95,30.13
40337,0.35,-0.52,1.11,-9.27,7.60,-32.44,30.04
40347,0.31,-0.45,1.06,-11.62,-6.06,-40.32,30.04
40357,0.28,-0.43,1.03,-9.15,-0.73,-39.50,30.18
40367,0.29,-0.40,1.00,-12.21,6.31,-34.93,30.08
40377,0.26,-0.37,1.02,-15.97,10.31,-29.18,30.08
40387,0.24,-0.36,1.01,-20.14,15.85,-22.09,30.08
40397,0.21,-0.33,0.99,-21.82,15.60,-16.00,30.08
40407,0.20,-0.31,0.97,-24.31,14.95,-12.09,30.18
40417,0.19,-0.31,0.95,-26.82,10.90,-8.66,30.13
40427,0.16,-0.30,0.97,-29.02,5.51,-6.89,30.13
40437,0.16,-0.31,1.00,-29.68,0.98,-7.79,30.13
40447,0.16,-0.33,1.02,-26.58,-3.19,-10.58,30.13
40457,0.17,-0.34,1.02,-18.50,-7.51,-13.51,30.08
40467,0.17,-0.35,1.03,-7.31,-9.05,-15.15,30.13
40477,0.18,-0.38,1.01,3.18,-4.87,-15.25,30.08
40487,0.20,-0.36,0.99,5.28,-2.99,-15.07,30.08
40497,0.21,-0.34,0.96,5.25,1.56,-14.63,29.99
40507,0.20,-0.33,0.96,2.73,5.82,-14.31,30.08
40517,0.19,-0.32,0.96,1.08,7.21,-13.25,30.08
40527,0.18,-0.32,0.95,-0.40,7.79,-12.27,30.08
40537,0.18,-0.33,0.97,-0.64,6.58,-11.34,30.13
40547,0.18,-0.35,1.00,-0.89,4.09,-11.74,30.13
40557,0.18,-0.36,0.99,-0.49,1.42,-11.71,30.13
40567,0.19,-0.36,0.98,0.98,0.85,-10.92,30.13
40577,0.20,-0.37,0.97,3.31,2.32,-9.59,30.04
40587,0.21,-0.38,0.94,4.37,4.49,-7.57,29.99
40597,0.22,-0.37,0.94,3.89,4.76,-6.95,30.08
40607,0.22,-0.38,0.94,1.97,4.99,-7.48,30.08
40617,0.21,-0.38,0.95,0.99,2.99,-7.89,30.08
40627,0.21,-0.38,0.96,-0.02,2.82,-7.31,30.08
40637,0.20,-0.38,0.96,-1.02,2.20,-7.33,30.08
40647,0.19,-0.38,0.97,-2.17,1.80,-8.15,30.08
40657,0.18,-0.38,0.96,-1.98,0.32,-7.98,30.04
40667,0.21,-0.38,0.95,-1.77,1.08,-6.81,30.13
40677,0.21,-0.38,0.96,-2.18,2.85,-6.06,30.04
40687,0.21,-0.37,0.94,-3.66,1.82,-6.47,30.04
40697,0.21,-0.36,0.95,-5.48,2.12,-6.05,30.04
40707,0.20,-0.36,0.96,-6.34,1.08,-6.20,30.08
40717,0.19,-0.36,0.99,-6.99,1.37,-5.19,30.08
40727,0.20,-0.36,0.99,-7.80,-1.08,-6.79,30.08
40737,0.21,-0.35,0.99,-7.59,-2.75,-11.54,30.18
40747,0.20,-0.35,1.00,-4.93,-4.00,-12.79,30.08
40757,0.19,-0.33,0.98,-3.98,-7.57,-11.33,30.18
40767,0.23,-0.36,0.99,0.11,-7.28,-9.11,30.13
40777,0.23,-0.39,0.98,2.99,-6.00,-5.94,30.04
