Timestamp,Acce_X,Acce_Y,Acce_Z,Gyro_X,Gyro_Y,Gyro_Z,Temp
42437,-0.15,-0.36,1.00,2.52,-34.90,-35.36,33.61
42447,-0.17,-0.37,0.93,3.11,-32.53,-28.37,33.71
42457,-0.14,-0.39,0.87,1.16,-26.55,-18.70,33.61
42467,-0.08,-0.37,0.76,-2.05,-17.24,-13.50,33.75
42477,-0.06,-0.36,0.68,-4.26,-6.23,-9.36,33.71
42487,-0.09,-0.37,0.63,-7.63,-0.73,-5.45,33.61
42497,-0.11,-0.50,0.67,-17.91,0.50,-2.95,33.61
42507,-0.15,-0.63,0.76,-24.78,-7.05,-2.26,33.75
42517,-0.16,-0.74,0.76,-26.49,-5.74,1.66,33.61
42527,-0.16,-0.87,0.77,-27.40,1.48,6.84,33.61
42537,-0.12,-1.00,0.75,-27.86,8.96,13.54,33.71
42547,-0.04,-1.10,0.73,-28.53,22.32,18.55,33.66
42557,0.02,-1.22,0.76,-32.35,30.95,14.96,33.61
42567,0.04,-1.35,0.77,-38.78,29.22,6.11,33.61
42577,0.02,-1.51,0.76,-44.64,20.63,-6.29,33.71
42587,0.01,-1.69,0.76,-42.06,5.73,-16.79,33.66
42597,0.07,-1.82,0.67,-35.45,2.90,-26.50,33.80
42607,0.07,-1.90,0.60,-30.06,-3.69,-36.47,33.71
42617,0.12,-1.95,0.50,-31.60,3.92,-44.96,33.71
42627,0.12,-1.97,0.44,-36.17,13.92,-54.15,33.66
42637,0.08,-1.99,0.47,-41.33,18.29,-64.66,33.71
42647,0.03,-1.97,0.47,-44.12,20.24,-76.00,33.71
42657,-0.02,-1.84,0.51,-48.55,25.02,-86.24,33.71
42667,-0.05,-1.72,0.52,-48.29,30.24,-96.02,33.66
42677,-0.08,-1.58,0.56,-51.22,34.56,-100.31,33.71
42687,-0.10,-1.42,0.57,-52.29,45.94,-97.08,33.71
42697,-0.12,-1.31,0.72,-59.11,55.36,-95.48,33.61
42707,-0.18,-1.25,0.94,-57.22,50.21,-91.08,33.71
42717,-0.35,-1.11,1.06,-41.62,31.33,-81.83,33.61
42727,-0.42,-1.01,1.21,-25.16,37.79,-63.08,33.71
42737,-0.46,-0.73,1.14,-17.04,15.98,-37.56,33.71
42747,-0.40,-0.54,1.08,-14.23,-11.25,-15.24,33.61
42757,-0.18,-0.40,1.02,-20.38,-35.19,1.42,33.71
42767,-0.03,-0.27,1.05,-24.12,-41.54,10.63,33.71
42777,0.08,-0.13,1.13,-13.56,-40.17,17.48,33.71
42787,0.14,-0.02,1.13,-3.42,-30.31,22.34,33.71
42797,0.09,0.10,1.10,2.38,-22.37,27.02,33.71
42807,0.05,0.17,1.10,-1.18,-35.33,28.23,33.71
42817,0.04,0.18,1.12,-6.78,-62.66,25.80,33.71
42827,0.04,0.16,1.12,-7.76,-88.87,25.22,33.71
42837,0.05,0.13,1.13,1.05,-109.16,29.11,33.61
42847,0.12,0.10,1.11,12.37,-121.54,34.75,33.71
42857,0.26,0.10,1.00,20.47,-121.01,42.09,33.71
42867,0.42,0.10,0.95,25.60,-105.57,45.82,33.71
42877,0.47,0.08,0.99,24.60,-88.85,42.82,33.71
42887,0.49,0.08,0.97,16.99,-71.80,39.28,33.61
42897,0.41,0.06,1.04,7.57,-57.71,36.90,33.71
42907,0.29,0.04,1.08,1.53,-48.81,34.82,33.71
42917,0.17,-0.01,1.11,-4.44,-42.37,34.12,33.61
42927,0.07,-0.03,1.12,-6.79,-40.34,36.20,33.61
42937,-0.01,-0.03,1.11,-5.51,-43.36,40.52,33.61
42947,-0.01,-0.04,1.14,-3.04,-57.31,42.98,33.61
42957,0.11,-0.04,1.17,-1.07,-68.93,42.72,33.71
42967,0.26,0.01,1.12,-3.19,-69.82,35.60,33.71
42977,0.31,0.06,1.12,-12.12,-59.47,26.46,33.71
42987,0.30,0.05,1.14,-20.64,-42.75,21.36,33.61
42997,0.24,0.02,1.23,-29.74,-23.30,21.21,33.61
43007,0.12,-0.03,1.33,-27.77,2.95,27.48,33.61
43017,0.02,-0.13,1.55,-11.18,4.35,31.05,33.71
43027,0.01,-0.10,1.48,5.73,0.24,30.90,33.61
43037,0.03,-0.08,1.39,13.05,-23.88,24.46,33.61
43047,0.07,-0.05,1.32,15.73,-62.37,12.64,33.71
43057,0.14,-0.03,1.23,17.02,-105.80,-3.82,33.71
43067,0.23,-0.01,1.11,22.46,-127.83,-13.74,33.71
43077,0.39,0.07,0.98,27.27,-114.73,-15.11,33.61
43087,0.57,0.12,0.88,30.72,-70.27,-12.00,33.71
43097,0.66,0.09,0.82,29.51,0.82,-11.45,33.71
43107,0.56,0.03,0.90,23.10,67.31,-12.66,33.71
43117,0.38,-0.08,1.07,16.05,110.12,-15.21,33.61
43127,0.12,-0.18,1.25,11.08,112.15,-20.12,33.71
43137,-0.11,-0.28,1.35,10.05,82.44,-23.04,33.71
43147,-0.22,-0.35,1.39,14.73,39.57,-20.67,33.71
43157,-0.29,-0.40,1.37,18.53,-1.39,-16.14,33.61
43167,-0.26,-0.47,1.39,22.29,-37.07,-15.01,33.61
43177,-0.13,-0.53,1.32,27.86,-60.85,-16.85,33.71
43187,-0.04,-0.52,1.16,38.37,-64.27,-17.05,33.71
43197,0.05,-0.46,0.99,45.27,-42.15,-14.90,33.71
43207,0.09,-0.34,0.83,47.15,-4.18,-8.11,33.71
43217,0.05,-0.28,0.78,36.63,30.26,1.82,33.61
43227,-0.01,-0.25,0.85,23.91,50.89,8.37,33.71
43237,-0.13,-0.25,1.02,13.39,40.70,9.48,33.80
43247,-0.19,-0.23,1.14,8.46,7.83,9.60,33.61
43257,-0.15,-0.20,1.18,13.54,-24.96,7.82,33.61
43267,-0.09,-0.12,1.18,18.00,-54.92,8.21,33.61
43277,0.04,-0.18,1.04,29.76,-46.14,13.30,33.61
43287,0.17,-0.16,0.91,32.11,-21.77,18.69,33.61
43297,0.25,-0.15,0.89,27.83,-1.18,21.42,33.52
43307,0.29,-0.16,0.86,19.13,14.21,19.19,33.71
43317,0.27,-0.18,0.89,5.63,16.55,11.33,33.61
43327,0.21,-0.20,0.92,0.49,-3.76,4.92,33.61
43337,0.15,-0.21,0.93,-3.15,-13.19,1.83,33.71
43347,0.12,-0.22,0.96,-3.28,-20.29,0.67,33.61
43357,0.17,-0.21,0.94,-6.12,-18.21,3.28,33.71
43367,0.16,-0.25,0.99,-6.20,-18.37,5.08,33.71
43377,0.20,-0.26,0.96,-6.78,-13.73,9.48,33.61
43387,0.27,-0.27,0.97,-8.72,-10.02,11.24,33.71
43397,0.29,-0.29,1.00,-15.36,1.37,9.21,33.71
43407,0.30,-0.32,1.05,-19.95,6.37,5.91,33.71
43417,0.26,-0.37,1.15,-21.18,5.85,1.59,33.71
43427,0.22,-0.40,1.20,-15.45,5.45,0.26,33.61
43437,0.23,-0.41,1.20,-7.57,8.24,0.73,33.61
43447,0.24,-0.40,1.16,-3.24,15.40,3.13,33.71
43457,0.25,-0.40,1.15,-2.41,24.99,5.02,33.61
43467,0.20,-0.40,1.14,-2.34,29.50,5.53,33.61
43477,0.15,-0.41,1.17,-2.43,28.26,5.77,33.61
43487,0.11,-0.40,1.16,0.60,15.53,5.51,33.71
43497,0.14,-0.37,1.10,-0.46,2.34,2.63,33.71
43507,0.19,-0.33,0.99,-2.38,-5.11,0.35,33.71
43517,0.19,-0.30,0.95,-7.02,-5.02,-1.62,33.61
43527,0.18,-0.30,0.94,-9.59,1.92,-0.37,33.71
43537,0.18,-0.32,0.96,-9.94,13.31,2.85,33.61
43547,0.18,-0.34,0.99,-7.31,17.45,4.29,33.61
43557,0.20,-0.35,0.98,-6.61,17.11,2.35,33.61
43567,0.20,-0.32,0.97,-6.20,14.84,-0.63,33.61
43577,0.18,-0.28,0.95,-8.17,10.66,-3.80,33.61
43587,0.16,-0.23,0.94,-10.41,5.25,-6.24,33.61
43597,0.15,-0.20,0.96,-16.24,4.21,-6.53,33.52
43607,0.14,-0.21,1.01,-20.93,5.68,-6.92,33.52
43617,0.14,-0.19,1.09,-21.80,8.35,-8.21,33.61
43627,0.15,-0.20,1.17,-16.35,17.59,-8.06,33.61
43637,0.14,-0.19,1.23,-10.58,24.82,-8.14,33.52
43647,0.16,-0.16,1.24,-5.04,33.07,-9.19,33.61
43657,0.18,-0.13,1.28,0.08,36.76,-9.51,33.71
43667,0.21,-0.11,1.27,4.96,38.96,-11.13,33.61
43677,0.25,-0.08,1.26,9.56,45.89,-12.11,33.61
43687,0.27,-0.07,1.25,16.40,59.24,-11.76,33.71
43697,0.25,-0.04,1.27,22.29,77.77,-7.40,33.71
43707,0.21,-0.06,1.29,30.55,94.17,0.02,33.52
43717,0.11,-0.08,1.31,35.30,104.67,8.11,33.61
43727,0.05,-0.10,1.29,37.91,106.41,15.16,33.61
43737,0.03,-0.12,1.21,35.56,107.76,20.87,33.61
43747,-0.02,-0.14,1.16,30.55,103.65,23.68,33.61
43757,-0.06,-0.19,1.18,33.31,87.25,22.14,33.71
43767,-0.04,-0.24,1.20,34.81,71.08,12.55,33.61
43777,-0.02,-0.27,1.20,32.21,55.02,-4.26,33.61
43787,0.02,-0.28,1.16,29.39,43.79,-21.98,33.61
43797,-0.02,-0.25,1.14,31.88,35.04,-34.69,33.52
43807,-0.07,-0.20,1.09,38.06,34.21,-42.02,33.71
43817,-0.11,-0.14,0.98,38.72,41.65,-43.51,33.71
43827,-0.14,-0.10,0.92,39.28,42.38,-42.64,33.71
43837,-0.14,-0.05,0.85,36.84,41.48,-41.80,33.61
43847,-0.18,-0.01,0.83,33.44,33.56,-40.99,33.52
43857,-0.18,0.01,0.80,22.55,28.05,-38.64,33.61
43867,-0.21,0.01,0.84,10.03,19.37,-35.05,33.52
43877,-0.19,-0.01,0.88,-0.06,8.02,-29.48,33.61
43887,-0.13,-0.05,0.91,-9.27,-0.24,-25.56,33.61
43897,-0.03,-0.11,0.95,-14.85,-6.76,-26.47,33.71
43907,0.03,-0.15,0.95,-14.78,-3.24,-28.29,33.61
43917,0.08,-0.16,0.98,-10.03,11.25,-29.83,33.71
43927,0.07,-0.17,1.02,-4.56,27.33,-32.92,33.61
43937,0.00,-0.18,1.07,-0.20,36.69,-35.65,33.61
43947,-0.10,-0.16,1.10,4.06,32.75,-37.02,33.61
43957,-0.17,-0.13,1.09,4.53,21.40,-34.26,33.61
43967,-0.19,-0.10,1.02,4.76,11.60,-27.28,33.61
43977,-0.14,-0.09,0.94,1.04,6.11,-19.39,33.71
43987,-0.07,-0.10,0.90,-8.76,5.95,-15.33,33.61
43997,-0.06,-0.14,0.94,-16.29,1.11,-13.47,33.61
44007,-0.02,-0.20,0.98,-22.06,-7.01,-13.13,33.61
44017,0.05,-0.27,1.05,-22.55,-20.84,-16.69,33.52
44027,0.12,-0.31,1.07,-20.38,-31.27,-22.52,33.61
44037,0.17,-0.33,1.06,-17.76,-28.92,-26.58,33.52
44047,0.19,-0.33,1.03,-12.15,-18.29,-26.70,33.61
44057,0.18,-0.32,0.98,-8.58,-1.37,-23.16,33.61
44067,0.15,-0.33,1.00,-7.74,11.28,-20.44,33.61
44077,0.14,-0.35,1.02,-6.87,20.34,-18.76,33.61
44087,0.08,-0.36,1.04,-6.00,24.55,-16.79,33.71
44097,0.04,-0.40,1.12,0.31,22.70,-14.70,33.71
44107,0.04,-0.42,1.16,7.53,16.87,-14.52,33.61
44117,0.03,-0.41,1.16,13.53,9.51,-15.62,33.61
44127,0.02,-0.39,1.14,18.08,6.21,-15.65,33.71
44137,-0.00,-0.40,1.15,23.31,-3.94,-17.08,33.52
44147,-0.01,-0.40,1.11,24.41,-16.58,-18.21,33.61
44157,-0.02,-0.36,1.04,21.11,-28.35,-16.72,33.61
44167,-0.03,-0.34,1.02,17.74,-37.63,-11.48,33.61
44177,-0.01,-0.31,0.96,15.37,-37.37,-3.36,33.71
44187,-0.00,-0.30,0.98,12.18,-28.70,4.50,33.61
44197,-0.01,-0.29,0.99,10.93,-15.71,13.74,33.71
44207,-0.03,-0.27,1.03,11.83,-9.21,19.85,33.71
44217,-0.03,-0.32,1.07,13.18,-11.13,20.32,33.61
44227,-0.04,-0.34,1.10,14.50,-20.15,15.73,33.61
44237,-0.03,-0.37,1.12,18.84,-36.14,8.00,33.61
44247,-0.01,-0.35,1.05,22.84,-48.72,4.06,33.61
44257,0.02,-0.33,0.98,21.01,-52.31,3.48,33.61
44267,0.05,-0.31,0.92,16.09,-51.91,4.23,33.61
44277,0.11,-0.33,0.90,8.60,-45.50,6.17,33.52
44287,0.13,-0.33,0.88,3.54,-33.57,9.85,33.61
44297,0.10,-0.34,0.91,3.47,-21.89,15.31,33.61
44307,0.09,-0.34,0.93,6.93,-9.69,21.31,33.52
44317,0.08,-0.36,0.95,12.31,-5.51,24.08,33.61
44327,0.10,-0.45,0.93,13.48,4.67,23.16,33.61
44337,0.08,-0.37,0.92,7.53,8.09,21.57,33.61
44347,0.09,-0.38,0.95,5.05,5.36,16.00,33.61
44357,0.07,-0.40,0.97,5.44,-4.05,9.71,33.61
44367,0.07,-0.39,0.97,5.59,-6.46,5.30,33.71
44377,0.03,-0.35,0.94,5.11,-12.08,2.78,33.61
44387,0.04,-0.30,0.86,2.52,-0.53,5.91,33.57
44397,0.01,-0.27,0.86,0.46,14.29,12.18,33.52
44407,-0.01,-0.27,0.87,0.93,27.36,18.47,33.61
44417,0.00,-0.29,0.85,1.62,39.57,23.79,33.71
44427,-0.00,-0.28,0.81,0.23,48.92,26.46,33.57
44437,-0.02,-0.27,0.81,-4.46,49.94,25.56,33.61
44447,-0.06,-0.26,0.82,-11.15,40.24,23.21,33.61
44457,-0.10,-0.30,0.86,-18.78,21.37,21.02,33.61
44467,-0.10,-0.31,0.87,-27.92,1.01,18.84,33.57
44477,-0.06,-0.33,0.91,-34.63,-10.70,16.47,33.52
44487,-0.04,-0.34,0.91,-34.84,-20.12,17.30,33.61
44497,-0.03,-0.35,0.93,-33.30,-18.56,19.28,33.61
44507,-0.01,-0.36,0.96,-34.00,-6.99,22.52,33.57
44517,-0.00,-0.39,1.01,-33.24,5.98,25.85,33.61
44527,0.02,-0.40,1.04,-32.58,19.59,28.38,33.52
44537,-0.00,-0.41,1.08,-32.67,29.97,29.21,33.52
44547,-0.04,-0.41,1.11,-29.34,36.81,31.15,33.47
44557,-0.08,-0.41,1.14,-24.49,40.05,33.25,33.61
44567,-0.09,-0.40,1.16,-19.71,39.91,33.88,33.71
44577,-0.09,-0.34,1.13,-19.18,41.59,32.70,33.61
44587,-0.18,-0.33,1.12,-14.89,33.62,33.10,33.57
44597,-0.24,-0.27,1.06,-21.42,32.95,34.87,33.57
44607,-0.20,-0.25,1.05,-27.51,47.76,40.34,33.66
44617,-0.29,-0.24,1.04,-28.72,33.33,47.02,33.66
44627,-0.36,-0.29,1.01,-27.48,30.27,57.73,33.66
44637,-0.38,-0.33,1.03,-24.50,30.24,68.81,33.57
44647,-0.31,-0.37,0.99,-16.15,12.67,77.15,33.66
44657,-0.21,-0.42,0.90,-17.13,1.95,78.26,33.66
44667,-0.10,-0.44,0.77,-26.11,-13.01,73.22,33.57
44677,0.00,-0.46,0.71,-39.51,-24.70,66.84,33.57
44687,0.00,-0.51,0.66,-55.74,-31.76,60.72,33.57
44697,-0.05,-0.55,0.77,-68.49,-47.16,58.90,33.57
44707,-0.01,-0.54,0.82,-71.86,-58.58,60.27,33.57
44717,0.09,-0.55,0.82,-70.23,-64.23,60.37,33.66
44727,0.20,-0.56,0.85,-73.63,-62.17,56.11,33.57
44737,0.25,-0.59,0.95,-74.61,-55.89,50.69,33.66
44747,0.27,-0.62,1.02,-73.31,-47.53,45.27,33.57
44757,0.32,-0.63,1.07,-67.01,-33.30,40.17,33.57
44767,0.38,-0.63,1.11,-62.96,-14.72,32.29,33.57
44777,0.38,-0.66,1.15,-58.31,3.85,23.60,33.57
44787,0.38,-0.64,1.18,-51.47,20.03,16.05,33.66
44797,0.35,-0.60,1.22,-44.37,33.15,9.92,33.57
44807,0.29,-0.59,1.24,-36.63,37.66,4.09,33.66
44817,0.22,-0.60,1.28,-29.74,40.52,-2.75,33.57
44827,0.17,-0.64,1.34,-19.39,32.89,-12.03,33.57
44837,0.14,-0.66,1.37,-1.02,19.92,-23.21,33.66
44847,0.07,-0.66,1.29,11.63,14.66,-34.75,33.57
44857,-0.02,-0.60,1.19,22.43,16.31,-39.28,33.57
44867,-0.11,-0.55,1.10,31.69,21.39,-36.82,33.66
44877,-0.17,-0.47,1.00,37.27,30.08,-30.17,33.57
44887,-0.20,-0.37,0.88,35.63,37.98,-22.15,33.66
44897,-0.25,-0.34,0.83,27.05,39.42,-13.88,33.57
44907,-0.26,-0.37,0.87,19.83,27.68,-9.37,33.57
44917,-0.24,-0.40,0.94,16.95,7.69,-8.47,33.57
44927,-0.21,-0.44,0.95,18.72,-10.82,-11.10,33.66
44937,-0.18,-0.42,0.92,20.47,-22.93,-14.21,33.57
44947,-0.14,-0.39,0.87,19.01,-22.15,-14.90,33.57
44957,-0.12,-0.36,0.85,14.81,-10.21,-11.80,33.75
44967,-0.09,-0.36,0.88,14.49,6.53,-7.18,33.57
44977,-0.09,-0.37,0.95,8.40,19.08,-5.86,33.57
44987,-0.08,-0.39,0.96,6.14,19.98,-7.60,33.57
44997,-0.11,-0.41,0.99,2.08,18.78,-12.46,33.57
45007,-0.16,-0.41,0.98,3.94,13.91,-16.14,33.66
45017,-0.24,-0.35,0.91,1.98,13.60,-15.34,33.66
45027,-0.29,-0.31,0.91,-3.13,11.98,-10.87,33.57
45037,-0.31,-0.31,0.94,-8.03,9.83,-5.65,33.66
45047,-0.28,-0.32,0.95,-14.76,6.79,-1.36,33.57
45057,-0.25,-0.34,1.00,-19.01,-0.24,0.81,33.57
45067,-0.19,-0.39,1.04,-18.17,-9.02,1.98,33.57
45077,-0.14,-0.43,1.07,-14.05,-12.75,0.87,33.66
45087,-0.11,-0.46,1.10,-8.81,-11.89,-0.44,33.66
45097,-0.10,-0.45,1.09,-5.21,-9.28,-1.07,33.57
45107,-0.10,-0.43,1.07,-0.98,-6.95,-1.18,33.57
45117,-0.08,-0.40,1.04,2.24,-5.98,-1.71,33.66
45127,-0.08,-0.37,0.99,2.05,-2.82,-1.34,33.57
45137,-0.07,-0.36,0.98,-0.93,1.74,-0.58,33.66
45147,-0.08,-0.39,1.00,-2.79,5.30,0.38,33.47
45157,-0.08,-0.42,1.02,-3.59,7.16,0.32,33.66
45167,-0.10,-0.42,1.02,-1.63,6.24,0.32,33.66
45177,-0.10,-0.42,1.01,-0.14,1.94,-0.14,33.66
45187,-0.08,-0.41,0.99,0.76,-4.44,-1.76,33.66
45197,-0.03,-0.37,0.95,0.73,-8.76,-4.63,33.66
45207,-0.03,-0.36,0.93,-0.92,-9.47,-8.20,33.57
45217,-0.03,-0.36,0.93,-5.04,-5.54,-10.12,33.66
45227,-0.07,-0.36,0.97,-7.19,0.56,-9.53,33.66
45237,-0.11,-0.36,1.02,-9.16,3.36,-8.14,33.66
45247,-0.16,-0.38,1.06,-7.86,1.16,-5.95,33.66
45257,-0.15,-0.36,1.08,-5.62,-3.39,-4.05,33.66
45267,-0.15,-0.36,1.08,-5.36,-6.32,-2.60,33.66
45277,-0.13,-0.35,1.08,-6.60,-7.40,-1.91,33.57
45287,-0.11,-0.37,1.09,-6.29,-6.82,-0.99,33.57
45297,-0.11,-0.39,1.11,-4.84,-4.87,0.11,33.75
45307,-0.12,-0.40,1.11,-1.18,-3.13,1.63,33.75
45317,-0.11,-0.41,1.10,3.39,-3.24,4.43,33.57
45327,-0.10,-0.39,1.05,5.60,-4.20,6.82,33.66
45337,-0.06,-0.36,1.00,5.16,-6.20,8.40,33.66
45347,0.00,-0.32,0.94,2.35,-6.21,8.35,33.66
45357,0.04,-0.31,0.90,-2.34,-1.69,8.11,33.66
45367,0.09,-0.30,0.90,-9.85,7.27,5.74,33.57
45377,0.08,-0.32,0.95,-15.66,14.93,1.69,33.66
45387,0.01,-0.34,1.02,-17.51,18.40,-0.67,33.75
45397,-0.04,-0.36,1.06,-16.29,18.37,-0.63,33.66
45407,-0.08,-0.36,1.06,-16.69,15.42,-1.08,33.66
45417,-0.10,-0.35,1.08,-20.17,7.92,-1.82,33.66
45427,-0.11,-0.37,1.07,-22.53,0.21,-0.46,33.66
45437,-0.13,-0.41,1.16,-17.42,-17.89,1.02,33.57
45447,-0.03,-0.39,1.04,-19.80,-7.15,1.51,33.66
45457,0.01,-0.41,0.98,-25.11,2.38,-2.03,33.66
45467,-0.11,-0.44,1.10,-23.91,-18.15,-6.81,33.57
45477,-0.01,-0.45,1.06,-19.37,-4.64,-4.26,33.57
45487,-0.09,-0.37,1.03,-16.26,-9.73,-2.81,33.66
45497,-0.04,-0.39,1.00,-7.98,-8.37,-2.24,33.66
45507,-0.04,-0.39,1.02,-3.08,-2.35,-1.56,33.57
45517,-0.01,-0.39,1.00,-0.08,-2.18,-2.05,33.66
45527,-0.00,-0.39,1.00,1.80,-1.22,-3.88,33.57
45537,-0.01,-0.38,0.99,3.57,-0.37,-4.98,33.66
45547,-0.01,-0.36,0.98,3.76,1.77,-5.27,33.66
45557,0.00,-0.35,0.96,3.63,7.42,-4.78,33.66
45567,-0.01,-0.37,0.97,2.38,12.85,-5.01,33.57
45577,-0.03,-0.37,1.00,2.35,15.92,-5.33,33.66
45587,-0.06,-0.37,1.02,3.45,15.21,-6.06,33.57
45597,-0.08,-0.36,1.02,5.21,12.05,-5.85,33.66
45607,-0.08,-0.34,1.00,6.95,8.40,-4.93,33.66
45617,-0.08,-0.34,0.96,7.04,6.08,-4.75,33.66
45627,-0.07,-0.35,0.98,5.50,4.95,-5.02,33.75
45637,-0.07,-0.35,0.96,5.02,6.12,-4.18,33.66
45647,-0.08,-0.35,0.95,3.77,8.18,-3.13,33.57
45657,-0.08,-0.35,0.96,2.90,7.36,-2.21,33.66
45667,-0.09,-0.35,0.96,2.50,3.73,-1.57,33.66
45677,-0.08,-0.35,0.96,1.82,-1.27,-1.45,33.75
45687,-0.07,-0.37,0.98,2.31,-8.18,-2.79,33.66
45697,-0.04,-0.37,0.99,3.95,-15.51,-5.45,33.66
45707,-0.03,-0.37,0.99,5.16,-22.03,-8.35,33.66
45717,-0.01,-0.37,0.97,6.02,-25.59,-10.31,33.57
45727,-0.01,-0.37,0.93,6.35,-22.20,-10.43,33.66
45737,0.00,-0.36,0.90,4.90,-11.50,-8.23,33.57
45747,0.01,-0.34,0.89,2.05,0.56,-5.63,33.57
45757,-0.00,-0.33,0.88,-0.95,10.32,-3.57,33.66
45767,-0.03,-0.32,0.90,-4.58,15.02,-2.89,33.66
45777,-0.05,-0.34,0.93,-5.98,15.19,-3.10,33.66
45787,-0.06,-0.35,0.95,-7.11,11.66,-2.89,33.57
45797,-0.08,-0.35,0.96,-7.91,7.57,-3.02,33.66
45807,-0.07,-0.35,0.98,-8.09,3.40,-3.21,33.66
45817,-0.08,-0.38,1.01,-10.15,-0.82,-4.85,33.66
45827,-0.11,-0.37,1.03,-6.49,-5.66,-4.98,33.66
45837,-0.10,-0.37,1.07,-4.15,-10.23,-4.73,33.66
45847,-0.07,-0.37,1.07,-1.24,-14.78,-3.45,33.66
45857,-0.07,-0.37,1.07,3.83,-15.92,-4.27,33.66
45867,-0.06,-0.36,1.05,5.97,-17.69,-4.66,33.75
45877,-0.05,-0.33,1.01,4.40,-15.19,-4.52,33.57
45887,-0.05,-0.30,0.97,-1.47,-11.94,-4.41,33.66
45897,-0.06,-0.31,0.98,-8.15,-6.17,-2.98,33.57
45907,-0.07,-0.32,1.03,-12.18,1.16,-0.79,33.66
45917,-0.09,-0.35,1.07,-13.21,6.49,1.34,33.57
45927,-0.12,-0.35,1.10,-12.82,8.87,3.45,33.66
45937,-0.14,-0.38,1.13,-9.97,6.37,5.74,33.66
45947,-0.12,-0.37,1.11,-5.73,0.70,7.92,33.66
45957,-0.08,-0.37,1.10,-2.06,-6.20,7.54,33.57
45967,-0.05,-0.36,1.04,-0.66,-12.40,6.17,33.57
45977,-0.04,-0.34,1.00,-0.98,-16.29,5.45,33.66
45987,-0.02,-0.33,0.95,-2.38,-16.27,6.18,33.66
45997,0.00,-0.34,0.95,-4.14,-14.66,6.70,33.57
46007,0.02,-0.35,0.95,-5.83,-10.38,7.22,33.66
46017,0.02,-0.35,0.92,-7.30,-5.13,8.53,33.66
46027,0.03,-0.37,0.93,-7.82,0.06,10.03,33.66
46037,0.04,-0.36,0.92,-8.09,5.04,10.53,33.66
46047,0.05,-0.35,0.92,-9.27,9.39,10.27,33.66
46057,0.05,-0.34,0.91,-11.71,12.60,10.14,33.57
46067,0.04,-0.33,0.93,-14.34,13.57,9.80,33.66
46077,0.04,-0.35,0.96,-15.89,12.49,8.38,33.66
46087,0.03,-0.38,1.02,-14.96,9.77,6.24,33.75
46097,0.01,-0.38,1.06,-12.47,7.68,4.47,33.66
46107,-0.01,-0.38,1.07,-10.27,5.36,3.42,33.57
46117,-0.00,-0.36,1.06,-8.34,2.66,2.76,33.57
46127,0.00,-0.36,1.04,-7.59,1.97,1.54,33.66
46137,0.01,-0.35,1.03,-7.98,3.02,0.58,33.61
46147,0.02,-0.34,1.02,-7.79,6.21,0.49,33.61
46157,0.01,-0.35,1.02,-7.21,8.38,0.44,33.71
46167,0.00,-0.34,1.01,-6.23,10.72,0.08,33.61
46177,-0.01,-0.35,1.00,-6.03,12.23,0.17,33.71
46187,-0.01,-0.34,1.00,-5.79,12.46,-0.37,33.71
46197,-0.02,-0.35,0.99,-6.60,11.68,-0.75,33.61
46207,-0.02,-0.36,0.99,-7.05,12.89,-0.90,33.71
46217,-0.04,-0.37,0.99,-5.74,13.31,-0.53,33.61
46227,-0.04,-0.38,0.99,-5.44,13.50,0.35,33.71
46237,-0.04,-0.39,0.98,-5.24,12.95,0.67,33.71
46247,-0.02,-0.38,0.96,-4.61,11.79,0.92,33.71
46257,-0.02,-0.37,0.94,-5.11,11.92,1.13,33.71
46267,-0.01,-0.37,0.93,-6.61,11.62,0.84,33.61
46277,-0.01,-0.38,0.93,-8.87,10.82,-0.47,33.71
46287,-0.03,-0.39,0.94,-12.15,8.81,-1.89,33.71
46297,-0.05,-0.41,0.97,-14.20,6.32,-2.23,33.61
46307,-0.08,-0.43,1.00,-13.02,2.64,-1.63,33.71
46317,-0.08,-0.44,1.02,-11.27,-0.34,-0.96,33.71
46327,-0.07,-0.43,1.02,-11.60,-0.20,-0.61,33.61
46337,-0.07,-0.42,1.02,-13.19,1.73,-0.14,33.71
46347,-0.07,-0.43,1.06,-15.16,3.66,0.26,33.71
46357,-0.07,-0.44,1.09,-14.95,6.24,0.84,33.71
46367,-0.09,-0.45,1.14,-12.96,8.82,1.02,33.71
46377,-0.10,-0.46,1.17,-10.20,8.14,0.64,33.71
46387,-0.13,-0.47,1.21,-6.37,4.02,-0.05,33.71
46397,-0.14,-0.49,1.23,-0.49,-4.34,-0.85,33.71
46407,-0.13,-0.47,1.21,5.22,-13.92,-1.73,33.71
46417,-0.10,-0.45,1.14,9.71,-21.28,-2.96,33.71
46427,-0.06,-0.42,1.06,10.98,-24.44,-4.21,33.61
46437,-0.02,-0.42,0.99,11.19,-22.20,-3.80,33.71
46447,0.01,-0.41,0.93,10.08,-13.83,-2.76,33.61
46457,0.05,-0.40,0.89,7.65,-1.95,-1.39,33.61
46467,0.06,-0.38,0.86,5.51,10.34,0.11,33.71
46477,0.05,-0.38,0.86,3.11,19.28,1.02,33.61
46487,0.03,-0.37,0.86,0.06,21.02,0.95,33.61
46497,0.04,-0.36,0.87,-1.76,23.28,-0.84,33.61
46507,0.01,-0.36,0.89,-1.91,20.23,-2.06,33.71
46517,-0.01,-0.37,0.90,-3.53,16.98,-3.42,33.71
46527,-0.03,-0.37,0.91,-5.10,14.08,-3.98,33.71
46537,-0.04,-0.37,0.92,-7.56,12.08,-3.76,33.71
46547,-0.04,-0.37,0.94,-9.21,10.02,-2.95,33.71
46557,-0.04,-0.37,0.96,-10.27,7.95,-2.37,33.71
46567,-0.05,-0.38,0.98,-11.30,6.47,-1.86,33.71
46577,-0.03,-0.39,1.00,-11.13,4.66,-1.86,33.61
46587,-0.02,-0.39,1.01,-11.19,2.81,-2.37,33.71
46597,-0.04,-0.39,1.01,-11.18,1.47,-3.18,33.61
46607,-0.04,-0.39,1.01,-10.76,0.75,-2.55,33.71
46617,-0.03,-0.39,1.01,-10.24,-0.29,-2.47,33.71
46627,-0.04,-0.38,1.01,-10.38,-1.22,-2.92,33.71
46637,-0.02,-0.38,0.99,-10.61,-0.49,-3.27,33.80
46647,-0.03,-0.39,0.98,-11.22,0.72,-3.40,33.71
46657,-0.02,-0.38,0.99,-12.02,3.15,-2.95,33.61
46667,-0.04,-0.38,0.98,-12.75,5.34,-2.24,33.71
46677,-0.05,-0.37,0.99,-14.40,4.09,-1.73,33.71
46687,-0.04,-0.38,1.00,-14.50,4.46,-1.44,33.71
46697,-0.05,-0.39,1.03,-14.21,2.98,-1.45,33.61
46707,-0.05,-0.39,1.01,-14.47,2.76,-0.98,33.71
46717,-0.06,-0.41,1.03,-14.24,2.70,-0.63,33.71
46727,-0.06,-0.42,1.04,-13.56,2.98,-0.26,33.71
46737,-0.05,-0.43,1.05,-12.46,2.50,-0.47,33.71
46747,-0.06,-0.43,1.04,-9.89,3.05,-0.17,33.71
46757,-0.06,-0.43,1.03,-8.61,2.84,-0.09,33.71
46767,-0.05,-0.43,1.03,-6.73,2.72,-0.06,33.71
46777,-0.05,-0.43,1.01,-6.11,3.40,0.27,33.61
46787,-0.05,-0.43,1.02,-5.59,3.25,-0.56,33.71
46797,-0.06,-0.43,1.03,-4.53,2.95,-1.79,33.71
46807,-0.08,-0.44,1.02,-2.95,1.98,-2.27,33.61
46817,-0.07,-0.42,1.00,-2.20,2.20,-2.20,33.61
46827,-0.07,-0.42,0.99,-2.34,2.40,-1.86,33.61
46837,-0.07,-0.42,0.98,-2.75,2.24,-2.21,33.71
46847,-0.08,-0.41,0.97,-3.74,1.80,-1.88,33.71
46857,-0.08,-0.41,0.98,-4.05,1.37,-1.36,33.71
46867,-0.07,-0.41,0.97,-4.20,1.80,-1.07,33.61
46877,-0.05,-0.41,0.97,-4.70,2.47,-1.15,33.61
46887,-0.06,-0.42,0.98,-4.75,3.28,-1.42,33.71
46897,-0.06,-0.41,0.99,-5.50,5.10,-1.65,33.71
46907,-0.08,-0.42,1.00,-5.48,5.85,-1.68,33.61
46917,-0.09,-0.42,1.00,-5.05,6.47,-0.93,33.80
46927,-0.10,-0.43,1.02,-3.98,6.23,-0.52,33.71
46937,-0.09,-0.44,1.03,-2.87,4.84,-0.44,33.61
46947,-0.10,-0.42,1.01,-2.06,3.01,-0.37,33.71
46957,-0.09,-0.42,1.00,-1.89,2.09,-0.05,33.61
46967,-0.08,-0.42,0.99,-2.53,1.71,-0.15,33.61
46977,-0.08,-0.42,0.99,-2.40,1.92,-0.15,33.61
46987,-0.07,-0.41,0.99,-2.75,3.13,-0.29,33.71
46997,-0.08,-0.42,0.99,-3.69,1.97,-0.61,33.61
47007,-0.08,-0.41,0.99,-3.92,0.12,-0.75,33.61
47017,-0.09,-0.41,0.99,-4.37,-1.92,-1.11,33.71
47027,-0.09,-0.41,0.98,-4.27,-2.82,-1.13,33.71
47037,-0.09,-0.40,0.97,-4.64,-1.02,0.00,33.61
47047,-0.07,-0.39,0.97,-6.03,1.33,1.40,33.71
47057,-0.08,-0.41,0.97,-7.44,3.16,2.40,33.61
47067,-0.09,-0.41,0.99,-7.42,3.65,3.60,33.61
47077,-0.10,-0.41,0.99,-6.21,2.89,4.20,33.61
47087,-0.10,-0.42,0.99,-5.30,-0.41,3.94,33.61
47097,-0.09,-0.41,0.99,-4.56,-4.50,3.88,33.61
47107,-0.08,-0.40,0.97,-4.64,-7.24,4.08,33.61
47117,-0.06,-0.40,0.98,-4.93,-8.47,4.37,33.61
47127,-0.05,-0.40,0.97,-5.95,-9.45,3.89,33.71
47137,-0.03,-0.41,0.97,-6.69,-8.64,3.28,33.71
47147,-0.03,-0.41,0.98,-7.39,-5.69,3.77,33.52
47157,-0.04,-0.42,1.00,-6.96,-1.68,4.90,33.61
47167,-0.04,-0.42,0.99,-5.56,3.07,5.79,33.71
47177,-0.03,-0.42,1.01,-5.04,7.22,5.62,33.71
47187,-0.02,-0.43,1.02,-4.79,8.72,4.64,33.52
47197,-0.04,-0.43,1.02,-3.80,6.98,3.77,33.66
47207,-0.04,-0.42,1.00,-3.47,4.38,2.79,33.80
47217,-0.04,-0.42,1.01,-3.04,0.75,1.85,33.71
47227,-0.03,-0.42,0.98,-2.21,-1.44,0.87,33.71
47237,-0.01,-0.42,0.98,-2.70,-1.44,-0.55,33.75
47247,-0.01,-0.42,0.96,-2.63,-1.08,-1.83,33.71
47257,-0.01,-0.42,0.95,-3.45,-0.89,-3.01,33.61
47267,-0.02,-0.41,0.94,-4.18,-0.76,-3.51,33.71
47277,-0.03,-0.40,0.94,-4.12,1.01,-3.13,33.71
47287,-0.02,-0.40,0.93,-5.05,3.51,-2.17,33.71
47297,-0.04,-0.40,0.94,-5.53,6.02,-1.47,33.71
47307,-0.05,-0.40,0.97,-5.45,6.95,-1.18,33.71
47317,-0.05,-0.41,0.99,-5.62,6.66,-1.18,33.61
47327,-0.07,-0.41,1.00,-4.69,5.53,-1.02,33.61
47337,-0.06,-0.42,0.99,-4.63,3.22,-1.66,33.71
47347,-0.06,-0.42,0.99,-4.24,2.21,-1.42,33.71
47357,-0.07,-0.42,0.98,-4.67,2.21,-0.96,33.66
47367,-0.06,-0.41,0.98,-4.96,2.64,-0.53,33.61
47377,-0.05,-0.41,0.98,-5.47,2.84,-0.20,33.71
47387,-0.05,-0.42,1.00,-4.31,3.10,-0.05,33.71
47397,-0.05,-0.43,1.00,-4.21,3.62,-0.27,33.71
47407,-0.05,-0.42,1.00,-3.94,4.34,-0.09,33.71
47417,-0.06,-0.43,1.01,-3.42,4.78,-0.03,33.80
47427,-0.07,-0.43,1.01,-3.56,4.53,-0.44,33.61
