Timestamp,Acce_X,Acce_Y,Acce_Z,Gyro_X,Gyro_Y,Gyro_Z,Temp
57297,-0.02,-0.15,1.05,-9.74,2.95,-1.71,32.72
57307,-0.02,-0.16,1.04,-9.94,2.46,-1.36,32.81
57317,-0.02,-0.16,1.05,-10.41,1.56,-2.00,32.72
57327,-0.03,-0.16,1.04,-11.19,2.26,-2.44,32.72
57337,-0.05,-0.16,1.04,-12.24,3.24,-1.05,32.72
57347,-0.08,-0.16,1.05,-13.88,3.47,0.50,32.81
57357,-0.09,-0.17,1.06,-14.90,3.77,2.27,32.72
57367,-0.08,-0.20,1.06,-16.27,3.77,3.25,32.62
57377,-0.08,-0.23,1.07,-17.66,1.47,4.14,32.72
57387,-0.07,-0.25,1.07,-19.11,-0.41,5.40,32.72
57397,-0.05,-0.27,1.09,-20.87,-1.11,6.60,32.62
57407,-0.02,-0.27,1.14,-20.53,-2.92,6.12,32.72
57417,0.03,-0.27,1.16,-15.36,-9.37,2.26,32.62
57427,0.06,-0.26,1.13,-9.76,-16.11,-3.21,32.72
57437,0.06,-0.24,1.05,-5.97,-22.47,-7.88,32.72
57447,0.05,-0.23,0.98,-7.11,-23.89,-10.37,32.81
57457,0.04,-0.23,0.94,-10.63,-18.75,-10.37,32.62
57467,0.05,-0.23,0.91,-14.46,-4.95,-8.40,32.81
57477,0.08,-0.23,0.92,-15.76,10.89,-7.83,32.72
57487,0.08,-0.25,0.96,-16.20,21.11,-8.11,32.72
57497,0.07,-0.25,0.98,-17.21,23.27,-10.05,32.72
57507,0.06,-0.26,1.03,-18.02,23.11,-12.06,32.72
57517,0.05,-0.27,1.07,-17.37,18.69,-13.71,32.67
57527,0.07,-0.29,1.07,-16.41,13.56,-16.18,32.72
57537,0.08,-0.31,1.07,-15.48,9.77,-18.90,32.72
57547,0.14,-0.33,1.06,-13.37,7.27,-20.60,32.81
57557,0.21,-0.35,1.04,-10.99,6.52,-28.53,32.67
57567,0.20,-0.33,1.04,-13.68,6.41,-35.83,32.72
57577,0.20,-0.35,1.05,-14.64,3.80,-41.50,32.72
57587,0.22,-0.37,1.00,-15.56,5.98,-47.04,32.72
57597,0.21,-0.40,1.00,-18.84,11.28,-51.80,32.67
57607,0.19,-0.43,1.07,-20.23,12.73,-57.79,32.72
57617,0.14,-0.46,1.12,-20.37,3.98,-62.56,32.67
57627,0.08,-0.50,1.10,-15.63,-9.19,-63.45,32.67
57637,0.03,-0.47,1.14,-16.18,-23.60,-64.70,32.67
57647,0.00,-0.43,1.06,-14.02,-40.37,-61.51,32.67
57657,0.03,-0.41,0.98,-18.44,-44.50,-56.32,32.77
57667,0.11,-0.43,0.91,-27.60,-35.24,-54.15,32.77
57677,0.14,-0.46,0.92,-32.69,-16.82,-53.42,32.67
57687,0.11,-0.49,0.97,-35.01,6.35,-50.58,32.67
57697,0.10,-0.53,1.04,-33.02,25.71,-49.50,32.67
57707,0.07,-0.56,1.09,-30.79,37.25,-48.27,32.67
57717,0.07,-0.56,1.11,-28.49,41.44,-50.61,32.67
57727,0.05,-0.56,1.13,-26.55,39.95,-54.40,32.67
57737,0.00,-0.55,1.10,-26.63,27.34,-56.34,32.77
57747,-0.04,-0.54,1.09,-26.95,8.11,-56.53,32.67
57757,-0.02,-0.51,1.04,-26.82,-6.52,-57.63,32.77
57767,-0.00,-0.49,0.99,-26.38,-12.73,-58.82,32.67
57777,-0.02,-0.47,0.93,-27.51,-8.06,-56.02,32.67
57787,-0.05,-0.45,0.93,-29.21,1.56,-51.53,32.77
57797,-0.09,-0.42,0.95,-31.42,8.70,-45.56,32.67
57807,-0.04,-0.42,0.94,-33.71,12.93,-44.24,32.67
57817,-0.03,-0.40,0.95,-37.66,22.98,-43.92,32.77
57827,-0.06,-0.38,1.01,-38.98,27.51,-43.86,32.77
57837,-0.10,-0.36,1.04,-38.60,22.81,-43.45,32.77
57847,-0.12,-0.34,1.03,-37.89,14.46,-41.31,32.77
57857,-0.11,-0.34,1.00,-38.82,10.29,-37.80,32.67
57867,-0.10,-0.31,0.98,-40.89,7.42,-33.60,32.67
57877,-0.08,-0.30,0.99,-40.96,16.11,-30.35,32.77
57887,-0.08,-0.29,0.98,-39.80,20.78,-23.88,32.77
57897,-0.07,-0.27,1.01,-37.42,27.37,-18.72,32.67
57907,-0.05,-0.27,1.03,-35.54,30.06,-16.00,32.77
57917,-0.06,-0.26,1.04,-33.95,23.83,-15.65,32.77
57927,-0.09,-0.24,1.04,-32.93,9.85,-15.04,32.67
57937,-0.09,-0.24,1.02,-33.59,-6.37,-12.41,32.67
57947,-0.11,-0.23,1.00,-37.47,-23.47,-8.44,32.77
57957,-0.09,-0.24,0.96,-42.66,-30.72,-2.40,32.67
57967,-0.05,-0.22,0.93,-49.07,-27.76,4.55,32.72
57977,0.02,-0.25,0.97,-52.08,-19.71,7.42,32.72
57987,0.03,-0.27,1.08,-49.11,-17.44,8.66,32.72
57997,0.06,-0.29,1.12,-44.17,-17.04,7.85,32.72
58007,0.07,-0.32,1.17,-36.92,-20.47,8.29,32.72
58017,0.14,-0.33,1.20,-25.68,-24.89,5.25,32.81
58027,0.17,-0.34,1.20,-13.42,-26.37,-0.37,32.62
58037,0.15,-0.32,1.15,-5.07,-22.56,-4.24,32.72
58047,0.10,-0.32,1.17,1.91,-23.44,-5.85,32.72
58057,0.05,-0.31,1.14,7.56,-27.94,-4.85,32.72
58067,0.01,-0.29,1.11,11.08,-31.60,-0.87,32.72
58077,0.01,-0.30,1.08,13.02,-31.21,3.33,32.62
58087,0.03,-0.33,1.08,14.27,-30.31,7.47,32.72
58097,0.08,-0.34,1.09,15.85,-26.26,10.41,32.81
58107,0.11,-0.34,1.11,17.28,-24.90,10.23,32.62
58117,0.11,-0.34,1.11,18.90,-24.64,9.92,32.72
58127,0.11,-0.35,1.11,21.05,-27.22,10.34,32.72
58137,0.12,-0.34,1.09,22.85,-31.30,11.28,32.62
58147,0.14,-0.32,1.06,22.90,-34.03,10.08,32.72
58157,0.15,-0.31,1.02,17.51,-36.43,7.22,32.72
58167,0.16,-0.30,1.02,10.99,-42.56,2.90,32.77
58177,0.11,-0.29,1.03,4.53,-53.24,0.89,32.72
58187,0.08,-0.29,1.01,-1.08,-61.56,2.17,32.81
58197,0.06,-0.29,1.01,-7.40,-68.05,6.38,32.72
58207,0.06,-0.30,1.02,-12.63,-72.46,12.75,32.67
58217,0.06,-0.30,1.04,-17.88,-76.87,19.66,32.81
58227,0.10,-0.31,1.06,-19.83,-79.08,25.91,32.72
58237,0.20,-0.31,1.09,-15.80,-70.85,30.02,32.72
58247,0.30,-0.33,1.11,-9.95,-63.66,27.25,32.77
58257,0.38,-0.34,1.13,-4.92,-64.29,19.60,32.67
58267,0.41,-0.34,1.14,-2.49,-75.53,7.83,32.77
58277,0.42,-0.34,1.13,-0.92,-94.41,-3.88,32.77
58287,0.40,-0.32,1.09,-0.58,-100.31,-11.10,32.58
58297,0.35,-0.29,1.08,1.59,-106.32,-9.91,32.77
58307,0.40,-0.28,1.01,6.84,-95.36,-3.36,32.67
58317,0.42,-0.26,0.97,12.70,-73.40,4.00,32.67
58327,0.43,-0.24,0.94,19.36,-50.03,12.55,32.67
58337,0.46,-0.24,0.91,24.69,-28.26,18.20,32.77
58347,0.46,-0.24,0.92,25.28,-16.82,20.34,32.77
58357,0.46,-0.23,0.93,23.19,-11.39,19.98,32.67
58367,0.44,-0.19,0.95,23.54,-13.60,17.85,32.77
58377,0.41,-0.18,0.93,24.34,-20.90,17.13,32.77
58387,0.38,-0.16,0.92,26.03,-22.37,19.50,32.77
58397,0.38,-0.13,0.90,26.89,-18.08,21.56,32.77
58407,0.36,-0.10,0.86,25.68,-13.11,22.60,32.67
58417,0.32,-0.09,0.83,21.76,-4.29,25.05,32.77
58427,0.29,-0.06,0.83,16.99,-0.96,27.80,32.77
58437,0.26,-0.08,0.84,9.73,1.73,30.93,32.67
58447,0.29,-0.07,0.87,0.56,5.68,30.89,32.77
58457,0.28,-0.07,0.94,-6.09,0.69,28.37,32.77
58467,0.29,-0.08,1.00,-8.17,-4.32,25.30,32.67
58477,0.30,-0.10,1.06,-6.60,-10.95,19.21,32.58
58487,0.31,-0.12,1.07,-3.88,-16.09,12.61,32.77
58497,0.30,-0.14,1.05,-2.37,-20.41,5.83,32.58
58507,0.29,-0.12,1.03,-2.12,-24.50,2.15,32.77
58517,0.31,-0.14,1.03,-0.14,-26.98,-2.38,32.58
58527,0.35,-0.15,1.02,3.10,-25.22,-6.99,32.67
58537,0.30,-0.16,1.02,4.49,-26.90,-8.00,32.72
58547,0.26,-0.16,1.06,5.88,-33.65,-4.56,32.53
58557,0.26,-0.17,1.02,8.27,-35.54,1.02,32.72
58567,0.28,-0.19,1.00,12.09,-30.49,7.94,32.72
58577,0.29,-0.20,0.96,16.32,-19.44,15.44,32.72
58587,0.30,-0.23,0.93,19.02,-10.00,22.08,32.72
58597,0.32,-0.24,0.94,18.66,-3.69,27.07,32.62
58607,0.37,-0.29,0.98,19.22,-2.20,28.50,32.72
58617,0.42,-0.31,0.99,20.08,-2.75,25.80,32.72
58627,0.45,-0.32,1.01,20.89,-4.61,20.66,32.72
58637,0.45,-0.31,1.01,19.94,-7.48,14.98,32.72
58647,0.45,-0.32,1.01,19.74,-13.22,9.73,32.72
58657,0.46,-0.33,0.98,19.36,-14.27,5.15,32.81
58667,0.46,-0.33,0.98,19.85,-16.46,1.53,32.72
58677,0.48,-0.32,0.97,20.95,-19.15,-2.66,32.72
58687,0.48,-0.29,0.95,22.21,-17.86,-7.86,32.81
58697,0.46,-0.27,0.93,22.37,-13.82,-10.84,32.67
58707,0.46,-0.22,0.88,19.71,-6.67,-12.72,32.72
58717,0.46,-0.19,0.86,15.77,4.27,-15.83,32.72
58727,0.45,-0.16,0.85,9.57,7.39,-17.22,32.72
58737,0.42,-0.17,0.85,5.39,13.97,-19.05,32.67
58747,0.39,-0.14,0.88,0.23,15.10,-16.47,32.72
58757,0.36,-0.14,0.93,-2.63,14.26,-12.23,32.72
58767,0.35,-0.13,0.99,2.75,11.04,-7.01,32.62
58777,0.38,-0.13,1.03,8.08,12.85,-4.47,32.67
58787,0.39,-0.13,1.02,13.18,12.20,-2.27,32.72
58797,0.37,-0.13,1.00,16.98,13.51,-0.12,32.77
58807,0.36,-0.13,0.96,16.37,15.66,2.49,32.77
58817,0.37,-0.13,0.92,12.38,20.11,4.99,32.77
58827,0.35,-0.13,0.92,7.44,23.71,6.43,32.77
58837,0.33,-0.13,0.92,1.48,22.96,7.18,32.58
58847,0.34,-0.13,0.95,-3.27,18.50,6.23,32.77
58857,0.33,-0.13,0.97,-7.22,15.25,4.98,32.67
58867,0.31,-0.13,0.99,-10.47,9.10,4.15,32.77
58877,0.30,-0.13,0.99,-12.69,5.91,4.44,32.86
58887,0.29,-0.14,1.00,-14.52,3.73,5.44,32.67
58897,0.29,-0.15,0.99,-16.53,3.07,7.21,32.77
58907,0.30,-0.16,0.99,-18.69,4.66,8.00,32.86
58917,0.32,-0.18,1.02,-19.89,4.32,7.56,32.67
58927,0.34,-0.20,1.04,-21.25,4.38,6.11,32.67
58937,0.33,-0.20,1.06,-20.27,1.45,3.76,32.77
58947,0.32,-0.21,1.05,-18.98,-0.85,3.22,32.77
58957,0.34,-0.23,1.05,-16.84,-0.52,2.58,32.77
58967,0.38,-0.26,1.06,-14.06,4.55,1.44,32.77
58977,0.41,-0.27,1.07,-9.74,8.79,-1.53,32.67
58987,0.41,-0.29,1.06,-6.23,10.41,-6.17,32.77
58997,0.40,-0.29,1.01,-4.14,7.97,-10.72,32.77
59007,0.42,-0.29,0.97,-5.01,11.65,-13.98,32.67
59017,0.42,-0.29,1.01,-7.21,12.58,-18.75,32.67
59027,0.41,-0.27,1.07,-6.14,9.42,-24.08,32.77
59037,0.39,-0.26,1.05,-0.29,6.79,-28.53,32.67
59047,0.35,-0.24,1.02,5.30,3.05,-30.43,32.67
59057,0.30,-0.22,0.96,7.68,0.44,-28.41,32.77
59067,0.28,-0.19,0.91,6.82,0.98,-23.94,32.77
59077,0.29,-0.17,0.87,2.23,6.96,-17.92,32.77
59087,0.31,-0.17,0.92,-0.26,13.15,-13.19,32.72
59097,0.31,-0.18,0.94,-1.13,15.62,-10.37,32.72
59107,0.29,-0.19,0.99,-0.21,14.99,-6.78,32.62
59117,0.29,-0.19,1.00,1.80,12.95,-3.56,32.81
59127,0.31,-0.20,0.98,3.18,16.03,-0.78,32.72
59137,0.32,-0.20,0.99,4.15,16.69,-0.44,32.72
59147,0.33,-0.20,0.98,2.78,14.72,-1.97,32.72
59157,0.33,-0.20,0.98,0.89,9.07,-3.79,32.81
59167,0.32,-0.20,0.97,-1.76,4.53,-3.80,32.72
59177,0.32,-0.22,0.98,-4.18,-0.46,-3.37,32.72
59187,0.33,-0.22,0.97,-7.01,1.71,-2.66,32.72
59197,0.33,-0.23,0.98,-8.03,2.60,-2.08,32.62
59207,0.32,-0.23,0.99,-9.56,4.43,0.18,32.62
59217,0.33,-0.25,1.01,-8.98,4.14,1.60,32.72
59227,0.32,-0.24,1.01,-7.56,2.21,2.47,32.62
59237,0.34,-0.24,0.99,-7.66,3.21,2.78,32.62
59247,0.37,-0.24,0.98,-8.12,2.99,1.31,32.72
59257,0.35,-0.22,0.98,-10.46,0.92,-0.43,32.72
59267,0.34,-0.23,1.00,-11.25,-3.37,-0.73,32.72
59277,0.35,-0.23,1.01,-10.76,-4.06,0.14,32.72
59287,0.35,-0.23,0.99,-8.73,-0.99,1.01,32.72
59297,0.36,-0.22,0.98,-7.07,2.06,1.95,32.72
59307,0.36,-0.22,0.96,-6.84,5.48,1.13,32.67
59317,0.35,-0.20,0.96,-8.03,6.06,-0.46,32.72
59327,0.34,-0.19,0.94,-9.60,2.73,-2.61,32.62
59337,0.33,-0.17,0.93,-13.28,-0.40,-4.87,32.72
59347,0.33,-0.14,0.92,-18.44,-2.75,-7.18,32.67
59357,0.32,-0.11,0.93,-23.47,-2.23,-8.92,32.72
59367,0.34,-0.09,0.98,-25.56,0.99,-11.01,32.72
59377,0.33,-0.09,1.02,-24.56,4.02,-12.89,32.62
59387,0.31,-0.07,1.02,-22.35,4.98,-14.76,32.67
59397,0.27,-0.05,1.01,-22.27,4.37,-15.28,32.62
59407,0.23,-0.04,0.99,-23.91,3.92,-13.44,32.67
59417,0.21,-0.05,0.99,-25.71,7.42,-9.16,32.67
59427,0.23,-0.07,1.01,-27.82,13.77,-5.74,32.67
59437,0.25,-0.11,1.06,-27.94,19.42,-5.22,32.67
59447,0.28,-0.13,1.09,-26.90,22.43,-7.85,32.67
59457,0.29,-0.15,1.13,-25.86,20.35,-12.61,32.77
59467,0.29,-0.15,1.13,-24.66,17.16,-18.99,32.67
59477,0.29,-0.14,1.12,-23.77,12.11,-25.60,32.77
59487,0.29,-0.14,1.11,-23.86,8.35,-31.92,32.67
59497,0.25,-0.13,1.12,-23.36,2.41,-35.57,32.67
59507,0.24,-0.12,1.09,-21.19,-2.06,-35.59,32.67
59517,0.21,-0.13,1.05,-18.26,-4.27,-31.36,32.67
59527,0.23,-0.12,1.06,-14.69,-3.05,-26.49,32.67
59537,0.25,-0.12,1.05,-11.01,-0.18,-21.05,32.58
59547,0.29,-0.11,1.04,-8.73,3.15,-17.33,32.77
59557,0.31,-0.09,1.05,-7.42,6.24,-14.98,32.67
59567,0.32,-0.08,1.06,-4.72,5.02,-12.29,32.58
59577,0.31,-0.09,1.05,-0.78,4.27,-8.20,32.77
59587,0.33,-0.11,1.00,2.84,10.11,-1.48,32.67
59597,0.35,-0.11,1.01,4.21,18.61,4.99,32.77
59607,0.38,-0.10,1.02,3.66,26.60,8.75,32.67
59617,0.40,-0.09,1.04,3.51,34.53,10.09,32.77
59627,0.40,-0.10,1.07,5.33,38.34,9.82,32.77
59637,0.41,-0.09,1.08,9.30,37.07,8.40,32.77
59647,0.43,-0.10,1.06,11.97,36.00,5.80,32.77
59657,0.42,-0.08,1.06,11.63,33.01,1.97,32.77
59667,0.40,-0.10,1.05,12.73,29.83,-1.66,32.67
59677,0.38,-0.11,1.04,9.60,30.78,-4.50,32.72
59687,0.37,-0.11,1.08,8.69,30.18,-6.03,32.72
59697,0.36,-0.11,1.08,9.56,30.11,-7.01,32.72
59707,0.32,-0.09,1.07,10.17,28.17,-8.12,32.72
59717,0.30,-0.09,1.07,10.95,23.33,-9.18,32.62
59727,0.31,-0.08,1.02,11.01,24.85,-9.04,32.72
59737,0.28,-0.07,1.04,9.31,27.08,-7.86,32.72
59747,0.26,-0.06,1.05,8.40,21.92,-4.41,32.72
59757,0.30,-0.07,1.05,8.67,25.19,-1.39,32.62
59767,0.29,-0.08,1.07,10.31,21.50,2.29,32.72
59777,0.34,-0.09,1.04,10.75,19.71,2.99,32.72
59787,0.33,-0.11,1.03,10.35,18.60,3.51,32.72
59797,0.33,-0.12,1.04,7.39,16.56,3.16,32.72
59807,0.32,-0.13,1.05,4.43,14.52,3.13,32.72
59817,0.31,-0.13,1.08,4.50,10.78,4.00,32.62
59827,0.29,-0.14,1.09,6.90,9.15,5.97,32.72
59837,0.27,-0.14,1.10,11.24,10.18,10.03,32.62
59847,0.25,-0.14,1.06,15.82,13.66,16.47,32.72
59857,0.18,-0.13,1.08,19.05,19.88,28.26,32.62
59867,0.16,-0.14,1.09,27.37,35.39,42.40,32.62
59877,0.18,-0.17,1.11,39.73,52.38,57.13,32.62
59887,0.23,-0.20,1.10,49.82,62.50,67.57,32.72
59897,0.29,-0.23,1.11,59.01,70.35,72.38,32.62
59907,0.34,-0.26,1.10,65.89,69.62,71.36,32.72
59917,0.41,-0.29,1.07,65.95,63.13,62.72,32.67
59927,0.45,-0.30,1.06,59.01,51.22,47.89,32.72
59937,0.44,-0.31,1.07,47.83,31.63,29.71,32.72
59947,0.40,-0.31,1.04,35.31,10.11,12.85,32.72
59957,0.35,-0.29,1.04,24.47,-10.18,-0.21,32.77
59967,0.28,-0.26,1.01,17.56,-23.79,-7.92,32.62
59977,0.20,-0.22,1.00,14.41,-29.74,-9.42,32.72
59987,0.17,-0.19,0.98,12.49,-25.04,-8.03,32.67
59997,0.19,-0.19,0.99,11.30,-13.15,-7.40,32.67
60007,0.17,-0.18,1.02,10.78,-5.94,-7.50,32.67
60017,0.15,-0.19,1.08,13.31,-4.17,-7.01,32.67
60027,0.11,-0.17,1.12,17.83,-8.18,-4.90,32.67
60037,0.09,-0.16,1.18,27.83,-18.76,-0.66,32.67
60047,0.07,-0.14,1.16,40.05,-23.56,6.05,32.67
60057,0.09,-0.11,1.11,51.47,-17.10,12.95,32.67
60067,0.10,-0.10,1.02,58.73,-5.04,20.29,32.58
60077,0.12,-0.09,0.96,63.57,4.87,24.15,32.67
60087,0.13,-0.07,0.88,61.57,13.76,28.20,32.77
60097,0.13,-0.05,0.85,55.07,14.35,31.62,32.67
60107,0.17,-0.04,0.82,48.78,14.87,32.82,32.58
60117,0.21,-0.03,0.80,40.47,12.69,31.11,32.67
60127,0.21,0.01,0.77,29.63,4.43,27.65,32.67
60137,0.17,0.04,0.78,18.24,-3.13,27.57,32.67
60147,0.17,0.04,0.77,9.88,-4.60,28.67,32.77
60157,0.19,0.02,0.77,1.28,0.60,29.76,32.67
60167,0.21,-0.02,0.80,-6.60,10.23,31.51,32.77
60177,0.23,-0.06,0.86,-9.69,21.47,32.64,32.67
60187,0.26,-0.10,0.87,-11.62,30.98,31.83,32.67
60197,0.27,-0.12,0.90,-13.48,32.73,29.13,32.67
60207,0.24,-0.12,0.90,-19.97,28.84,25.30,32.72
60217,0.17,-0.12,0.94,-27.54,16.66,24.34,32.72
60227,0.13,-0.13,1.00,-32.79,2.93,24.24,32.62
60237,0.13,-0.15,1.00,-38.23,-8.60,23.01,32.72
60247,0.14,-0.20,1.00,-42.40,-12.49,22.61,32.81
60257,0.14,-0.25,1.04,-42.69,-4.05,24.78,32.62
60267,0.13,-0.31,1.09,-36.79,14.24,28.44,32.72
60277,0.15,-0.33,1.15,-27.30,47.08,32.89,32.62
60287,0.13,-0.35,1.23,-14.73,70.53,35.10,32.72
60297,0.12,-0.34,1.24,-2.02,79.74,32.85,32.62
60307,0.09,-0.32,1.22,6.31,75.19,28.73,32.72
60317,0.04,-0.29,1.19,9.80,53.28,23.69,32.62
60327,0.04,-0.28,1.05,7.80,37.74,19.45,32.72
60337,0.01,-0.29,0.99,-3.16,26.53,15.48,32.62
60347,0.00,-0.31,0.95,-13.77,23.07,14.67,32.62
60357,0.01,-0.32,0.97,-22.06,32.08,15.80,32.72
60367,0.03,-0.34,1.03,-27.15,41.50,16.98,32.62
60377,0.06,-0.35,1.09,-26.47,47.22,15.85,32.72
60387,0.06,-0.35,1.15,-24.27,45.24,12.70,32.72
60397,0.04,-0.35,1.21,-21.34,35.86,8.29,32.62
60407,0.04,-0.35,1.24,-17.63,20.81,2.79,32.67
60417,0.03,-0.34,1.21,-16.03,8.06,-2.60,32.72
60427,-0.01,-0.33,1.21,-15.42,-3.65,-5.54,32.62
60437,-0.03,-0.32,1.17,-14.08,-7.11,-5.91,32.72
60447,-0.06,-0.29,1.14,-13.42,-4.72,-3.69,32.67
60457,-0.06,-0.27,1.09,-12.27,0.98,0.72,32.72
60467,-0.07,-0.26,1.07,-12.85,8.26,6.76,32.62
60477,-0.06,-0.27,1.06,-12.87,10.78,10.49,32.67
60487,-0.04,-0.27,1.07,-12.92,7.86,11.79,32.58
60497,-0.00,-0.27,1.09,-13.19,0.37,10.53,32.67
60507,0.02,-0.30,1.09,-14.14,-6.02,6.58,32.67
60517,0.02,-0.31,1.08,-17.27,-15.97,2.92,32.67
60527,0.01,-0.32,1.10,-19.05,-28.14,1.60,32.67
60537,0.03,-0.33,1.08,-19.10,-29.71,2.69,32.58
60547,0.06,-0.32,1.05,-17.56,-9.94,7.77,32.58
60557,0.08,-0.31,1.11,-11.45,21.40,14.31,32.67
60567,0.09,-0.33,1.19,-4.92,40.40,16.08,32.67
60577,0.11,-0.33,1.24,2.98,40.11,12.21,32.58
60587,0.09,-0.32,1.27,7.88,18.81,6.23,32.67
60597,0.07,-0.29,1.24,11.05,-6.31,-0.98,32.67
60607,0.04,-0.24,1.16,9.16,-19.94,-4.64,32.77
60617,0.02,-0.22,1.08,7.40,-24.40,-4.18,32.67
60627,0.03,-0.20,1.00,5.53,-15.53,-1.31,32.67
60637,0.01,-0.19,0.97,2.31,-1.48,3.21,32.58
60647,0.00,-0.17,0.97,0.38,11.79,7.53,32.67
60657,-0.01,-0.17,1.00,-3.42,20.61,10.99,32.67
60667,-0.03,-0.18,1.07,-5.11,16.32,12.15,32.67
60677,-0.02,-0.20,1.10,-5.54,6.78,11.95,32.67
60687,-0.05,-0.19,1.12,-5.85,-1.74,13.40,32.67
60697,-0.03,-0.19,1.10,-5.24,-8.17,14.63,32.67
60707,-0.01,-0.19,1.08,-5.79,-8.85,15.82,32.67
60717,-0.01,-0.19,1.07,-6.70,-7.65,17.19,32.67
60727,0.00,-0.18,1.07,-8.35,-6.64,17.94,32.67
60737,0.00,-0.18,1.06,-8.98,-6.78,18.89,32.67
60747,0.03,-0.18,1.03,-9.73,-4.12,20.66,32.67
60757,0.05,-0.19,1.00,-10.93,0.82,21.71,32.67
60767,0.09,-0.20,1.00,-13.83,5.02,20.84,32.67
60777,0.11,-0.20,1.03,-16.96,6.75,18.00,32.67
60787,0.10,-0.20,1.09,-17.94,-1.11,14.96,32.58
60797,0.12,-0.22,1.08,-15.48,-4.35,14.00,32.62
60807,0.15,-0.23,1.08,-12.08,1.98,12.76,32.72
60817,0.14,-0.22,1.08,-9.22,9.34,11.79,32.62
60827,0.11,-0.22,1.12,-6.69,13.04,12.03,32.72
60837,0.11,-0.20,1.10,-2.75,18.17,13.82,32.62
60847,0.15,-0.21,1.07,2.15,25.34,15.77,32.53
60857,0.20,-0.21,1.03,6.55,33.88,14.89,32.72
60867,0.23,-0.20,1.00,8.24,42.38,11.57,32.53
60877,0.21,-0.20,1.00,6.15,44.32,5.73,32.72
60887,0.14,-0.19,1.03,3.51,38.41,-0.27,32.72
60897,0.07,-0.18,1.05,2.44,25.91,-3.88,32.81
60907,0.02,-0.16,1.07,4.53,13.48,-4.70,32.72
60917,0.03,-0.15,1.04,6.85,5.60,-5.04,32.62
60927,0.03,-0.14,1.02,6.44,3.65,-4.82,32.72
60937,0.04,-0.13,1.01,5.57,3.34,-4.84,32.72
60947,0.05,-0.14,1.02,4.56,3.02,-4.67,32.72
60957,0.06,-0.15,1.06,2.31,5.02,-6.06,32.72
60967,0.06,-0.16,1.09,0.55,2.70,-9.47,32.62
60977,0.02,-0.15,1.12,-0.99,-8.09,-12.41,32.72
60987,-0.01,-0.13,1.15,-0.12,-20.82,-13.88,32.72
60997,0.01,-0.12,1.10,2.24,-24.75,-13.92,32.62
61007,0.02,-0.13,1.07,3.18,-23.13,-13.42,32.72
61017,0.04,-0.13,1.04,2.03,-17.74,-13.47,32.72
61027,0.03,-0.12,1.05,-0.64,-12.03,-13.18,32.62
61037,0.01,-0.12,1.06,-2.21,-6.11,-12.40,32.62
61047,-0.01,-0.11,1.07,-1.91,-0.70,-10.53,32.72
61057,-0.02,-0.10,1.08,-0.85,3.44,-7.98,32.72
61067,-0.01,-0.11,1.04,-1.19,8.06,-5.66,32.62
61077,0.00,-0.12,1.04,-3.77,11.44,-5.40,32.62
61087,0.00,-0.12,1.09,-5.65,7.05,-6.63,32.72
61097,-0.02,-0.12,1.11,-7.37,-0.84,-7.97,32.72
61107,-0.02,-0.12,1.13,-7.40,-6.35,-7.19,32.62
61117,-0.01,-0.12,1.12,-5.13,-5.98,-5.68,32.62
61127,0.00,-0.14,1.12,-1.56,-3.57,-4.63,32.62
61137,0.01,-0.13,1.09,1.01,1.94,-3.18,32.72
61147,0.02,-0.13,1.07,2.31,9.19,-2.44,32.72
61157,0.02,-0.12,1.08,3.47,13.04,-2.44,32.62
61167,0.01,-0.12,1.07,3.57,13.92,-2.23,32.72
61177,-0.00,-0.11,1.05,2.12,10.43,-2.84,32.62
61187,-0.00,-0.11,1.05,0.64,3.86,-2.90,32.72
61197,0.03,-0.11,1.03,-1.37,0.67,-3.91,32.72
61207,0.03,-0.10,1.05,-2.24,-1.91,-4.70,32.62
61217,0.01,-0.11,1.06,-1.66,-5.18,-5.13,32.72
61227,-0.00,-0.11,1.06,-1.82,-8.90,-4.87,32.62
61237,-0.00,-0.09,1.04,-1.65,-12.00,-3.62,32.62
61247,0.03,-0.09,0.99,-2.55,-3.57,-1.69,32.62
61257,0.06,-0.09,0.98,-3.33,8.14,-0.23,32.62
61267,0.04,-0.10,1.03,-2.38,14.70,0.78,32.72
61277,0.03,-0.10,1.04,-2.85,13.21,0.81,32.62
61287,0.04,-0.10,1.05,-3.51,6.34,0.12,32.62
61297,0.07,-0.11,1.03,-4.52,2.27,-0.90,32.67
61307,0.08,-0.11,1.03,-5.10,0.78,-2.46,32.62
61317,0.08,-0.10,1.02,-6.43,3.92,-3.45,32.62
61327,0.06,-0.10,1.01,-7.28,8.75,-3.85,32.72
61337,0.05,-0.09,1.03,-6.05,11.11,-3.56,32.67
61347,0.01,-0.09,1.02,-2.96,9.02,-1.92,32.72
61357,-0.00,-0.08,1.01,-2.15,6.87,-0.96,32.72
61367,-0.01,-0.09,1.02,-3.25,2.17,-0.38,32.62
61377,-0.02,-0.08,1.01,-5.85,-1.47,0.79,32.67
61387,-0.02,-0.08,1.02,-8.21,-3.02,2.79,32.72
61397,0.01,-0.08,1.01,-9.15,-2.27,3.76,32.62
61407,0.07,-0.10,0.99,-10.27,1.16,2.60,32.62
61417,0.07,-0.10,1.01,-11.77,0.29,1.39,32.77
61427,0.07,-0.11,1.01,-13.86,1.40,0.81,32.72
61437,0.06,-0.11,1.04,-16.23,1.62,0.17,32.62
61447,0.06,-0.13,1.08,-17.21,1.07,-0.64,32.62
61457,0.06,-0.13,1.10,-18.08,0.85,-1.68,32.77
61467,0.05,-0.13,1.12,-17.97,-1.82,-2.00,32.62
61477,0.04,-0.14,1.15,-14.78,-4.43,-1.92,32.62
61487,0.04,-0.14,1.16,-8.56,-5.98,-1.66,32.62
61497,0.04,-0.14,1.14,-4.32,-3.48,-0.69,32.67
61507,0.04,-0.13,1.12,-2.47,1.92,-0.31,32.62
61517,0.04,-0.13,1.12,-2.43,4.70,-0.15,32.67
61527,0.03,-0.12,1.11,-3.34,5.01,-0.26,32.67
61537,0.03,-0.12,1.09,-3.92,6.92,-0.12,32.67
61547,0.02,-0.14,1.10,-2.64,9.08,0.85,32.67
61557,0.02,-0.13,1.10,-0.20,9.51,1.82,32.67
61567,0.03,-0.13,1.08,0.23,9.57,1.86,32.67
61577,0.03,-0.14,1.07,-0.89,8.05,1.74,32.67
61587,0.04,-0.13,1.07,-2.43,6.08,0.43,32.67
61597,0.03,-0.13,1.08,-3.65,2.03,-0.38,32.67
61607,0.02,-0.12,1.08,-4.49,0.96,-1.28,32.67
61617,0.05,-0.13,1.06,-4.20,3.07,-1.56,32.77
61627,0.05,-0.13,1.05,-3.76,6.34,-1.85,32.67
61637,0.03,-0.14,1.05,-4.64,5.77,-2.41,32.67
61647,0.02,-0.13,1.06,-5.86,3.27,-2.55,32.67
61657,0.01,-0.14,1.08,-6.85,3.53,-1.94,32.67
61667,0.01,-0.13,1.08,-6.14,4.47,-1.69,32.67
61677,0.01,-0.14,1.07,-4.38,7.25,-0.99,32.58
61687,0.00,-0.14,1.07,-3.11,8.14,-0.27,32.67
61697,0.00,-0.13,1.05,-2.82,8.32,0.17,32.58
61707,0.01,-0.14,1.05,-3.18,7.63,0.35,32.77
61717,0.01,-0.15,1.05,-4.60,6.35,0.03,32.67
61727,0.01,-0.14,1.06,-5.18,7.39,-0.17,32.67
61737,0.02,-0.14,1.06,-5.48,8.73,-0.38,32.58
61747,0.00,-0.14,1.07,-4.87,9.65,-0.32,32.53
61757,0.00,-0.15,1.09,-3.97,8.17,-0.90,32.72
61767,-0.02,-0.14,1.09,-3.21,5.02,-0.79,32.62
61777,-0.01,-0.14,1.08,-2.52,2.14,-1.25,32.81
61787,-0.01,-0.14,1.07,-2.11,0.18,-1.68,32.62
61797,-0.00,-0.14,1.06,-1.95,-1.44,-2.18,32.62
61807,-0.01,-0.14,1.05,-1.77,-1.97,-2.32,32.62
61817,-0.01,-0.13,1.06,-1.16,-2.34,-2.00,32.72
61827,-0.01,-0.13,1.04,-0.69,-2.31,-1.66,32.62
61837,-0.00,-0.11,1.02,-1.44,-3.71,-1.18,32.72
61847,-0.00,-0.11,1.02,-3.01,-4.05,-1.25,32.72
61857,-0.00,-0.10,1.02,-3.95,-4.27,-1.13,32.62
61867,-0.01,-0.10,1.00,-5.15,-2.49,-0.38,32.62
61877,-0.02,-0.09,1.00,-5.94,1.76,1.57,32.72
61887,-0.02,-0.09,1.02,-5.91,5.54,3.69,32.72
61897,-0.02,-0.10,1.02,-5.79,10.09,5.57,32.62
61907,-0.02,-0.10,1.04,-6.61,10.40,7.08,32.58
61917,0.01,-0.12,1.06,-7.59,7.50,7.34,32.72
61927,0.03,-0.13,1.07,-8.37,4.38,7.31,32.72
61937,0.06,-0.15,1.07,-7.82,5.36,7.53,32.62
61947,0.08,-0.16,1.07,-8.00,10.52,7.11,32.67
61957,0.09,-0.17,1.09,-7.68,13.56,6.27,32.72
61967,0.08,-0.18,1.11,-7.13,12.75,4.41,32.62
61977,0.08,-0.18,1.11,-6.15,9.08,2.08,32.62
61987,0.06,-0.18,1.11,-4.56,4.93,0.03,32.67
61997,0.05,-0.17,1.11,-3.27,2.02,-1.15,32.67
62007,0.05,-0.16,1.08,-2.23,1.10,-2.14,32.67
62017,0.05,-0.15,1.04,-2.40,2.98,-2.50,32.67
62027,0.02,-0.15,1.03,-3.59,2.61,-2.93,32.67
62037,0.01,-0.14,1.04,-5.01,-0.11,-3.13,32.67
62047,0.01,-0.14,1.03,-6.64,-1.95,-3.05,32.67
62057,0.01,-0.13,1.02,-7.65,1.18,-2.46,32.67
62067,-0.01,-0.14,1.03,-8.11,3.76,-2.09,32.67
62077,-0.02,-0.14,1.05,-8.67,5.83,-1.53,32.67
62087,-0.03,-0.14,1.06,-9.22,4.81,-1.30,32.67
62097,-0.03,-0.15,1.06,-9.37,3.82,-1.40,32.67
62107,-0.02,-0.15,1.05,-8.12,5.39,-1.34,32.67
62117,-0.03,-0.15,1.07,-6.09,7.44,-0.05,32.67
62127,-0.03,-0.15,1.06,-5.02,9.37,1.21,32.67
62137,-0.04,-0.15,1.06,-5.50,9.30,1.68,32.67
62147,-0.03,-0.14,1.05,-6.58,8.47,1.50,32.67
62157,-0.03,-0.13,1.05,-7.22,8.61,1.34,32.67
62167,-0.02,-0.14,1.05,-7.53,10.02,0.95,32.67
62177,-0.04,-0.15,1.07,-7.34,6.85,1.05,32.67
62187,-0.04,-0.14,1.06,-8.29,3.71,0.78,32.77
62197,-0.05,-0.15,1.06,-8.60,1.45,1.76,32.67
62207,-0.04,-0.15,1.05,-8.09,1.69,2.52,32.67
62217,-0.03,-0.15,1.05,-7.88,3.15,3.40,32.67
62227,-0.02,-0.15,1.05,-8.78,5.27,4.37,32.67
62237,-0.02,-0.16,1.08,-8.85,3.88,4.05,32.77
62247,0.00,-0.16,1.07,-8.05,2.95,3.69,32.67
62257,0.02,-0.16,1.07,-6.52,2.49,3.40,32.72
62267,0.02,-0.17,1.06,-5.94,4.09,3.63,32.72
62277,0.01,-0.17,1.05,-6.05,4.09,3.18,32.72
62287,0.02,-0.15,1.06,-7.53,3.21,2.37,32.72
