Timestamp,Acce_X,Acce_Y,Acce_Z,Gyro_X,Gyro_Y,Gyro_Z,Temp
33247,-0.06,-0.30,1.07,-14.27,-23.80,-17.39,32.11
33257,-0.11,-0.28,1.03,-17.95,-42.02,-27.11,32.11
33267,-0.15,-0.25,0.96,-26.29,-53.48,-34.27,32.11
33277,-0.17,-0.24,0.91,-26.12,-61.76,-28.87,32.06
33287,-0.13,-0.25,0.81,-27.27,-49.37,-11.69,32.06
33297,0.01,-0.33,0.76,-20.08,-15.21,7.34,32.06
33307,0.11,-0.45,0.78,-23.30,14.47,21.54,32.06
33317,0.14,-0.54,0.92,-28.61,29.97,22.06,32.06
33327,0.16,-0.61,1.01,-33.18,31.24,12.76,31.97
33337,0.12,-0.67,1.09,-37.50,20.72,-3.31,32.06
33347,0.07,-0.69,1.13,-38.85,-2.34,-17.83,32.11
33357,0.02,-0.70,1.16,-39.01,-24.38,-27.11,32.15
33367,0.01,-0.69,1.13,-36.43,-35.33,-26.64,32.01
33377,0.05,-0.69,1.08,-32.96,-30.58,-19.37,32.20
33387,0.10,-0.71,1.07,-26.75,-10.89,-8.78,32.01
33397,0.13,-0.73,1.04,-18.55,12.32,1.40,32.11
33407,0.14,-0.75,1.01,-13.92,30.53,7.91,32.20
33417,0.14,-0.77,1.02,-12.24,37.63,9.07,32.11
33427,0.13,-0.79,1.00,-14.12,35.73,6.46,32.11
33437,0.12,-0.81,1.01,-15.94,28.06,3.53,32.11
33447,0.13,-0.82,0.97,-17.16,20.52,1.76,32.20
33457,0.17,-0.83,0.94,-18.06,14.14,-0.12,32.15
33467,0.21,-0.86,0.89,-18.64,9.47,-0.98,32.15
33477,0.28,-0.86,0.86,-20.63,10.43,-3.53,32.15
33487,0.29,-0.86,0.86,-24.87,14.79,-6.44,32.06
33497,0.27,-0.87,0.90,-28.08,24.05,-8.29,32.06
33507,0.22,-0.89,0.99,-24.72,32.11,-7.21,32.15
33517,0.16,-0.89,1.04,-21.08,37.16,-6.56,32.20
33527,0.12,-0.87,1.10,-17.25,35.08,-9.28,32.06
33537,0.06,-0.85,1.11,-13.24,25.05,-14.76,32.06
33547,0.02,-0.78,1.09,-10.09,10.44,-19.94,32.20
33557,-0.03,-0.71,1.03,-8.63,-5.42,-22.17,32.11
33567,-0.04,-0.63,0.96,-12.72,-16.32,-19.74,32.01
33577,-0.01,-0.56,0.93,-17.28,-14.12,-16.21,32.11
33587,-0.03,-0.52,0.95,-25.05,-6.43,-14.02,32.11
33597,-0.10,-0.53,1.05,-28.47,-2.67,-9.73,32.11
33607,-0.14,-0.51,1.11,-26.18,0.40,-2.75,32.11
33617,-0.18,-0.48,1.11,-20.14,3.07,8.20,32.11
33627,-0.18,-0.46,1.12,-15.65,6.11,19.97,32.20
33637,-0.14,-0.46,1.11,-12.44,2.09,28.60,32.06
33647,-0.09,-0.43,1.09,-12.78,-7.98,29.37,32.06
33657,-0.04,-0.43,1.05,-16.47,-26.76,26.29,32.15
33667,0.03,-0.39,0.97,-20.31,-40.00,22.50,32.15
33677,0.08,-0.36,0.91,-25.02,-44.18,18.95,32.15
33687,0.13,-0.33,0.87,-25.48,-46.27,19.63,32.11
33697,0.16,-0.28,0.84,-27.27,-35.08,22.43,32.06
33707,0.16,-0.28,0.85,-27.97,-19.01,28.21,32.06
33717,0.15,-0.30,0.92,-28.26,-3.89,35.15,32.01
33727,0.10,-0.31,0.97,-28.35,4.53,40.92,32.11
33737,0.10,-0.33,1.02,-29.82,6.63,40.93,32.01
33747,0.10,-0.35,1.04,-30.17,-2.21,34.95,32.11
33757,0.16,-0.40,1.04,-31.73,-18.29,20.47,32.01
33767,0.23,-0.42,1.02,-30.43,-28.43,-1.28,32.20
33777,0.20,-0.52,1.17,-33.98,-51.11,-30.15,32.01
33787,0.28,-0.58,1.28,-31.56,-85.24,-61.45,32.01
33797,0.30,-0.59,1.20,-26.11,-104.75,-82.78,32.01
33807,0.27,-0.48,1.10,-19.95,-101.94,-92.09,32.06
33817,0.22,-0.36,1.06,-5.28,-84.41,-80.79,32.06
33827,0.18,-0.25,1.00,20.41,-54.50,-56.09,32.06
33837,0.12,-0.18,0.88,43.80,-22.03,-26.79,32.06
33847,0.07,-0.16,0.78,54.79,-7.18,0.60,32.06
33857,0.11,-0.17,0.74,53.31,2.35,26.06,32.01
33867,0.14,-0.20,0.72,45.82,4.32,39.56,32.06
33877,0.21,-0.26,0.75,39.92,-3.89,37.40,32.06
33887,0.20,-0.32,0.82,36.12,-19.62,26.90,32.15
33897,0.18,-0.34,0.89,35.30,-39.80,10.66,32.11
33907,0.15,-0.33,0.92,40.96,-57.40,-4.06,32.11
33917,0.16,-0.29,0.87,51.24,-66.21,-12.82,32.11
33927,0.19,-0.23,0.78,56.21,-63.16,-13.73,32.11
33937,0.20,-0.11,0.67,54.29,-47.13,-9.95,32.01
33947,0.19,-0.05,0.63,47.95,-26.92,1.27,32.20
33957,0.18,0.03,0.59,39.56,-8.32,10.06,32.11
33967,0.16,0.06,0.61,29.50,4.81,21.40,32.11
33977,0.15,0.07,0.69,18.20,10.87,33.16,32.01
33987,0.14,0.01,0.81,6.14,6.78,40.79,32.06
33997,0.15,-0.07,0.94,-2.37,-4.12,42.50,32.06
34007,0.22,-0.14,1.00,-6.78,-13.19,36.92,31.97
34017,0.22,-0.24,1.11,-7.65,-26.03,30.21,31.97
34027,0.23,-0.25,1.16,-3.21,-36.90,23.11,32.06
34037,0.26,-0.25,1.16,4.18,-43.04,19.27,32.15
34047,0.32,-0.19,1.08,9.95,-38.90,17.76,32.15
34057,0.34,-0.13,1.02,11.28,-37.56,18.41,32.06
34067,0.38,-0.04,0.94,2.35,-37.47,17.37,32.01
34077,0.41,-0.03,0.95,-11.91,-35.33,16.70,32.11
34087,0.41,-0.04,0.94,-26.43,-27.01,15.24,32.01
34097,0.40,-0.07,0.98,-36.89,-18.66,12.99,32.01
34107,0.40,-0.13,1.10,-43.02,-8.89,12.87,32.20
34117,0.41,-0.25,1.17,-35.05,-9.95,9.31,32.11
34127,0.44,-0.34,1.27,-19.50,-3.95,3.31,32.11
34137,0.42,-0.40,1.30,2.56,-2.12,-2.75,32.01
34147,0.42,-0.39,1.21,19.05,-0.20,-8.70,32.01
34157,0.42,-0.34,1.06,24.31,-0.73,-17.92,32.11
34167,0.40,-0.28,0.96,21.71,-4.46,-28.69,32.01
34177,0.36,-0.24,0.87,16.70,-14.18,-38.05,32.06
34187,0.36,-0.19,0.76,8.53,-21.63,-42.06,32.06
34197,0.34,-0.17,0.72,0.43,-22.53,-43.80,32.06
34207,0.33,-0.19,0.70,-8.95,-21.02,-43.25,32.06
34217,0.30,-0.20,0.69,-17.40,-13.31,-38.31,32.15
34227,0.25,-0.23,0.73,-21.04,-1.27,-28.90,32.06
34237,0.23,-0.27,0.77,-23.73,14.00,-14.34,32.01
34247,0.23,-0.31,0.84,-26.66,28.03,-4.08,32.06
34257,0.24,-0.40,0.96,-27.62,30.90,0.66,32.06
34267,0.23,-0.46,1.04,-26.64,23.65,-3.07,31.92
34277,0.19,-0.45,1.07,-22.56,10.81,-8.34,32.11
34287,0.20,-0.44,1.05,-20.29,-1.11,-11.83,32.11
34297,0.21,-0.41,1.00,-20.05,-8.53,-12.58,32.11
34307,0.22,-0.40,0.95,-22.47,-9.89,-9.66,32.11
34317,0.21,-0.40,0.94,-24.06,-3.65,-2.03,32.11
34327,0.21,-0.41,0.94,-24.49,11.71,10.47,32.11
34337,0.22,-0.42,0.96,-19.16,31.42,23.31,32.11
34347,0.22,-0.45,0.96,-6.15,54.31,35.01,32.01
34357,0.21,-0.42,0.95,-0.37,74.47,44.31,32.01
34367,0.17,-0.37,0.95,0.38,79.31,48.20,32.15
34377,0.16,-0.37,0.99,-3.25,65.92,43.80,32.06
34387,0.16,-0.38,1.01,-11.68,37.40,32.90,32.06
34397,0.20,-0.41,1.03,-21.21,5.53,22.34,32.06
34407,0.24,-0.42,1.06,-24.89,-13.53,14.31,32.15
34417,0.26,-0.46,1.08,-21.68,-17.56,13.10,32.06
34427,0.27,-0.45,1.09,-11.60,-3.21,20.43,32.15
34437,0.31,-0.43,1.08,-1.28,20.93,30.14,32.06
34447,0.31,-0.42,1.05,7.02,41.85,36.02,32.20
34457,0.29,-0.42,1.05,12.76,51.50,35.73,32.01
34467,0.19,-0.40,1.09,9.44,43.89,28.85,32.11
34477,0.11,-0.37,1.08,8.70,29.76,22.47,32.11
34487,0.08,-0.34,1.07,5.47,17.15,17.65,32.11
34497,0.04,-0.32,1.05,4.66,4.81,16.84,32.11
34507,0.05,-0.31,0.96,1.97,3.37,20.38,32.11
34517,0.08,-0.28,0.92,0.14,9.15,28.37,32.11
34527,0.11,-0.31,0.91,-3.71,17.07,37.54,32.01
34537,0.17,-0.36,0.93,-4.46,21.10,40.60,32.01
34547,0.21,-0.43,0.95,-4.40,15.98,35.10,32.01
34557,0.23,-0.42,0.97,-6.14,-0.63,25.63,32.06
34567,0.10,-0.33,0.99,-11.02,-26.60,12.46,32.06
34577,0.06,-0.28,0.98,-7.95,-64.23,9.25,32.06
34587,0.35,0.47,1.06,-52.85,-17.89,22.79,32.15
34597,0.29,-0.43,1.17,-16.96,-45.79,32.56,32.06
34607,0.49,-0.75,1.04,6.96,5.80,25.45,32.06
34617,0.61,-0.64,1.05,0.58,13.59,-5.85,32.01
34627,0.32,-0.54,1.04,-4.27,-7.76,-26.63,32.15
34637,0.09,-0.45,1.09,-0.53,-4.34,-26.52,32.06
34647,-0.05,-0.38,1.14,1.05,-10.23,-18.38,32.11
34657,-0.08,-0.34,1.06,3.50,-15.74,-11.79,32.11
34667,-0.03,-0.35,1.09,0.82,-12.53,-6.66,32.20
34677,-0.04,-0.40,1.09,-0.12,-17.05,-0.06,32.01
34687,-0.03,-0.43,1.12,-0.15,-11.65,8.49,32.01
34697,0.03,-0.48,1.11,12.98,9.56,17.31,32.11
34707,0.09,-0.46,1.01,14.56,12.75,26.31,32.11
34717,0.21,-0.42,0.96,9.28,23.30,30.20,32.11
34727,0.20,-0.44,0.96,2.27,23.36,27.40,32.01
34737,0.25,-0.42,1.00,0.14,8.47,18.90,32.06
34747,0.25,-0.42,0.98,-1.63,-8.72,9.16,32.06
34757,0.30,-0.37,0.97,-4.95,-17.71,3.27,32.06
34767,0.36,-0.37,0.95,-6.31,-14.92,-0.96,32.06
34777,0.35,-0.38,0.98,-10.72,-7.27,-3.71,32.06
34787,0.27,-0.41,1.02,-13.74,-3.40,-2.78,32.06
34797,0.20,-0.42,1.10,-9.27,7.80,-0.24,32.06
34807,0.13,-0.42,1.15,-1.83,6.58,2.52,31.97
34817,0.13,-0.45,1.13,5.77,4.50,-0.41,32.06
34827,0.18,-0.38,1.09,7.15,0.41,-1.60,32.11
34837,0.18,-0.40,1.00,9.44,-3.37,-4.23,32.01
34847,0.19,-0.38,0.97,4.99,-2.90,-5.30,32.01
34857,0.20,-0.37,0.97,2.66,3.18,-3.97,32.11
34867,0.17,-0.36,0.95,3.59,4.76,-0.47,32.11
34877,0.19,-0.36,1.00,3.08,13.27,-2.31,32.01
34887,0.17,-0.32,1.00,3.56,15.73,-2.23,32.01
34897,0.11,-0.32,1.03,7.97,12.90,-3.48,32.11
34907,0.08,-0.31,1.06,11.44,8.96,-3.08,32.01
34917,0.20,-0.24,0.99,6.81,26.05,-8.66,32.01
34927,0.15,-0.27,1.02,21.30,11.73,-3.11,31.97
34937,0.14,-0.25,0.97,13.80,8.31,-1.60,31.97
34947,0.12,-0.24,1.01,7.82,12.73,1.63,31.97
34957,0.10,-0.26,1.05,4.52,25.04,3.47,32.06
34967,0.09,-0.27,1.11,1.80,25.30,3.21,32.06
34977,0.19,-0.27,1.19,4.56,40.93,-4.14,32.06
34987,0.08,-0.26,1.21,19.47,12.66,-3.95,32.15
34997,0.07,-0.26,1.26,28.87,3.86,-15.04,32.11
35007,0.08,-0.22,1.22,37.28,-8.87,-29.51,32.06
35017,0.08,-0.16,1.16,47.30,-21.27,-41.63,32.06
35027,0.03,-0.09,1.06,50.32,-26.26,-47.91,32.11
35037,-0.02,0.01,1.04,47.83,-26.63,-50.63,32.01
35047,-0.09,0.09,1.04,43.68,-20.02,-39.54,32.11
35057,-0.08,0.15,1.06,42.08,-7.88,-21.01,32.01
35067,-0.01,0.13,1.02,39.71,8.98,-0.78,32.11
35077,0.10,0.08,1.02,33.25,25.30,15.97,32.01
35087,0.18,-0.02,1.08,23.60,30.40,24.40,32.11
35097,0.27,-0.15,1.16,17.15,22.49,18.85,32.01
35107,0.28,-0.26,1.25,17.40,-3.88,1.44,32.01
35117,0.34,-0.34,1.26,30.81,-33.48,-23.79,31.97
35127,0.36,-0.34,1.20,43.21,-70.49,-53.60,31.97
35137,0.40,-0.25,1.01,48.85,-95.40,-77.47,32.06
35147,0.44,-0.14,0.81,43.19,-102.66,-85.86,32.06
35157,0.49,-0.03,0.63,27.13,-92.03,-80.84,32.06
35167,0.54,0.04,0.55,8.69,-62.35,-64.92,32.06
35177,0.59,0.05,0.55,-7.59,-19.22,-43.94,32.06
35187,0.58,-0.05,0.64,-16.66,22.05,-29.42,32.06
35197,0.51,-0.12,0.77,-18.29,46.89,-25.74,32.15
35207,0.40,-0.19,0.87,-17.39,48.40,-31.65,32.11
35217,0.29,-0.18,0.90,-16.29,33.95,-42.87,32.01
35227,0.22,-0.16,0.92,-15.39,11.82,-50.09,32.11
35237,0.20,-0.13,0.89,-17.08,-8.41,-52.84,32.11
35247,0.22,-0.12,0.86,-19.95,-24.47,-55.28,32.11
35257,0.23,-0.10,0.85,-24.96,-33.39,-54.20,32.11
35267,0.23,-0.06,0.83,-27.39,-33.25,-47.05,32.11
35277,0.22,-0.07,0.87,-27.57,-31.83,-38.73,32.01
35287,0.22,-0.10,0.91,-25.92,-26.24,-33.28,32.11
35297,0.20,-0.13,0.96,-24.81,-28.12,-32.12,32.06
35307,0.13,-0.16,0.99,-27.37,-41.63,-35.53,31.97
35317,0.03,-0.18,1.07,-29.76,-62.35,-35.59,32.06
35327,-0.06,-0.15,1.06,-24.49,-81.80,-27.19,31.97
35337,-0.29,-0.17,1.13,-14.89,-105.33,-3.50,32.06
35347,-0.02,-0.14,1.10,-3.95,-105.79,23.83,32.06
35357,0.16,-0.14,1.03,10.61,-114.02,45.63,32.06
35367,0.50,-0.18,0.89,16.09,-100.84,49.30,32.06
35377,0.76,-0.26,0.79,5.65,-78.14,30.09,32.01
35387,0.92,-0.31,0.77,-11.80,-54.82,4.12,32.01
35397,0.94,-0.36,0.84,-26.12,-30.85,-15.37,32.11
35407,0.81,-0.35,1.00,-25.73,-11.44,-24.02,32.01
35417,0.72,-0.31,1.00,-9.18,19.19,-13.45,32.01
35427,0.67,-0.25,0.96,4.40,52.32,6.73,32.01
35437,0.66,-0.21,0.92,12.29,92.93,26.00,32.11
35447,0.61,-0.21,0.94,18.21,126.17,40.32,32.11
35457,0.54,-0.26,1.07,21.76,131.57,46.64,32.01
35467,0.48,-0.31,1.13,20.38,115.30,38.23,32.15
35477,0.45,-0.35,1.16,15.79,81.50,17.66,32.15
35487,0.43,-0.34,1.14,10.92,47.45,-1.25,32.06
35497,0.39,-0.31,1.09,5.44,21.83,-12.08,32.06
35507,0.35,-0.31,1.10,0.05,2.72,-16.23,32.06
35517,0.37,-0.29,1.09,-1.39,-6.99,-17.65,31.97
35527,0.37,-0.28,1.05,2.40,-7.15,-14.78,31.97
35537,0.36,-0.27,1.02,7.11,-1.30,-8.23,31.97
35547,0.36,-0.27,0.99,6.87,7.74,-1.42,32.01
35557,0.35,-0.29,1.00,6.02,15.42,4.47,32.11
35567,0.41,-0.33,1.01,4.70,19.22,4.87,32.11
35577,0.41,-0.38,1.02,0.46,18.46,-0.14,32.11
35587,0.39,-0.41,1.02,-1.53,11.95,-10.03,32.01
35597,0.39,-0.45,1.06,2.21,-0.89,-23.10,32.01
35607,0.37,-0.44,1.03,5.76,-15.44,-37.31,32.11
35617,0.34,-0.39,0.98,8.79,-28.00,-45.97,32.01
35627,0.32,-0.30,0.87,7.92,-24.67,-41.22,32.11
35637,0.30,-0.23,0.84,8.21,-15.40,-25.62,32.11
35647,0.31,-0.18,0.79,6.49,6.05,-6.09,32.06
35657,0.36,-0.19,0.74,2.63,36.61,21.30,32.06
35667,0.39,-0.28,0.86,-2.87,52.78,41.42,31.97
35677,0.43,-0.43,1.01,-5.40,51.89,47.01,31.97
35687,0.47,-0.56,1.14,-5.54,35.30,37.05,32.06
35697,0.47,-0.65,1.31,-3.31,6.66,16.52,32.06
35707,0.41,-0.64,1.40,5.59,-26.73,-6.17,31.97
35717,0.33,-0.55,1.32,17.88,-52.02,-20.69,32.01
35727,0.29,-0.41,1.17,23.71,-52.64,-24.29,32.06
35737,0.31,-0.28,1.02,26.47,-34.66,-20.70,32.01
35747,0.26,-0.17,0.90,28.78,-14.08,-13.39,32.01
35757,0.24,-0.10,0.83,28.15,5.62,-4.50,32.11
35767,0.21,-0.06,0.79,23.79,16.52,3.68,32.01
35777,0.20,-0.02,0.79,16.93,9.91,8.37,32.01
35787,0.20,-0.05,0.80,9.31,2.46,14.78,32.01
35797,0.22,-0.13,0.90,1.56,-7.98,19.13,32.01
35807,0.26,-0.21,0.93,4.14,-19.36,20.98,32.11
35817,0.29,-0.26,0.93,7.63,-22.64,21.02,32.01
35827,0.32,-0.28,0.95,9.57,-17.57,20.87,32.06
35837,0.35,-0.26,0.93,9.16,-9.05,20.55,31.97
35847,0.37,-0.25,0.90,5.86,0.72,18.35,31.97
35857,0.38,-0.24,0.86,-3.37,12.18,13.27,31.97
35867,0.34,-0.20,0.84,-11.01,19.24,7.63,32.06
35877,0.30,-0.22,0.86,-15.69,23.08,8.75,32.06
35887,0.30,-0.21,0.89,-20.64,25.65,10.95,32.01
35897,0.31,-0.22,0.92,-23.57,29.30,12.31,32.06
35907,0.30,-0.24,0.93,-24.06,32.66,10.56,32.06
35917,0.27,-0.31,0.95,-23.69,32.79,11.02,32.11
35927,0.26,-0.31,0.97,-26.02,33.01,9.28,32.11
35937,0.23,-0.36,0.97,-28.92,31.69,7.39,32.11
35947,0.20,-0.38,1.00,-26.78,32.20,5.44,32.01
35957,0.17,-0.39,1.02,-19.97,30.02,3.83,32.11
35967,0.13,-0.37,1.02,-18.76,30.46,2.72,32.01
35977,0.08,-0.31,0.97,-21.13,28.23,4.50,32.11
35987,0.07,-0.25,0.89,-28.53,29.77,10.38,32.01
35997,0.03,-0.19,0.88,-35.02,28.76,22.09,32.01
36007,0.11,-0.19,0.84,-32.15,34.43,32.20,32.06
36017,0.14,-0.28,0.90,-25.05,44.20,35.56,31.87
36027,0.15,-0.38,1.00,-24.79,47.80,33.83,32.06
36037,0.15,-0.42,1.08,-23.59,40.14,28.92,32.15
36047,0.11,-0.46,1.16,-19.37,25.36,24.00,32.06
36057,0.11,-0.47,1.20,-12.79,11.13,21.73,32.06
36067,0.14,-0.44,1.16,-3.73,0.12,21.27,32.06
36077,0.20,-0.40,1.09,3.98,-0.89,24.92,32.06
36087,0.27,-0.34,0.98,5.65,6.29,27.47,31.97
36097,0.30,-0.31,0.93,0.46,23.65,28.67,32.11
36107,0.28,-0.30,0.94,-5.45,38.02,28.53,32.11
36117,0.23,-0.31,1.00,-9.53,41.51,27.71,32.11
36127,0.18,-0.31,1.05,-12.63,34.60,25.02,32.01
36137,0.17,-0.33,1.08,-13.47,21.54,20.95,31.92
36147,0.17,-0.34,1.12,-13.88,8.17,16.72,32.11
36157,0.15,-0.36,1.15,-10.24,-4.67,14.63,32.11
36167,0.19,-0.38,1.15,-2.58,-7.92,17.07,32.01
36177,0.25,-0.38,1.10,5.34,-0.55,21.39,32.01
36187,0.27,-0.39,1.09,9.68,9.89,24.47,32.11
36197,0.30,-0.39,1.08,8.79,20.96,24.49,32.06
36207,0.31,-0.40,1.08,3.51,29.34,21.82,32.06
36217,0.29,-0.42,1.10,-0.98,31.74,15.33,31.97
36227,0.25,-0.46,1.15,-1.44,29.39,8.44,32.06
36237,0.18,-0.50,1.19,2.03,21.88,2.75,32.06
36247,0.12,-0.50,1.17,6.89,15.85,0.79,32.15
36257,0.10,-0.45,1.10,14.64,8.26,5.13,32.06
36267,0.11,-0.36,0.99,22.24,7.54,13.68,32.11
36277,0.16,-0.30,0.91,25.02,10.79,21.02,32.06
36287,0.18,-0.25,0.86,20.40,16.02,24.14,32.06
36297,0.23,-0.27,0.90,13.74,18.27,21.69,32.11
36307,0.22,-0.34,0.97,7.36,17.24,13.97,32.01
36317,0.22,-0.38,1.04,5.18,16.73,5.18,32.01
36327,0.17,-0.35,1.04,4.27,21.37,-0.82,32.11
36337,0.12,-0.30,1.03,5.97,28.11,-1.63,32.01
36347,0.08,-0.28,1.02,7.01,37.37,0.26,32.01
36357,0.03,-0.24,0.99,4.85,45.19,4.18,32.01
36367,0.01,-0.22,1.01,1.76,49.27,9.63,32.11
36377,-0.01,-0.21,1.01,-1.15,49.54,13.24,32.11
36387,0.00,-0.21,1.02,-5.28,47.50,14.47,32.01
36397,-0.03,-0.22,1.03,-12.69,39.57,14.84,32.06
36407,-0.05,-0.20,1.02,-23.05,30.93,15.88,31.97
36417,-0.05,-0.18,1.02,-34.15,24.60,19.01,32.06
36427,-0.05,-0.17,1.02,-44.82,16.73,21.92,32.15
36437,-0.03,-0.21,1.04,-50.27,8.53,26.69,32.06
36447,0.02,-0.27,1.06,-52.46,8.43,30.26,32.06
36457,0.10,-0.37,1.14,-48.50,12.84,30.89,31.97
36467,0.14,-0.47,1.20,-39.66,17.53,27.21,32.06
36477,0.14,-0.49,1.25,-29.54,18.53,22.60,32.01
36487,0.11,-0.45,1.25,-19.37,15.42,19.04,32.11
36497,0.09,-0.40,1.22,-11.42,9.68,17.10,32.11
36507,0.08,-0.37,1.16,-8.21,4.31,16.11,32.01
36517,0.10,-0.36,1.11,-6.14,-2.12,14.18,32.01
36527,0.13,-0.34,1.06,-2.58,-7.36,11.40,32.11
36537,0.16,-0.37,1.00,2.58,-7.63,8.38,32.11
36547,0.19,-0.37,0.96,6.61,1.95,4.56,32.11
36557,0.16,-0.38,0.96,8.23,11.76,-2.60,32.01
36567,0.11,-0.38,0.98,8.20,13.63,-10.95,32.01
36577,0.08,-0.35,0.96,8.35,13.25,-16.32,31.97
36587,0.04,-0.34,0.92,9.65,16.70,-18.69,32.06
36597,-0.01,-0.31,0.94,10.53,20.96,-18.35,32.06
36607,-0.05,-0.26,0.92,11.66,24.92,-14.84,32.06
36617,-0.07,-0.21,0.90,9.83,28.87,-9.34,32.06
36627,-0.09,-0.19,0.90,5.33,30.00,-3.69,32.06
36637,-0.10,-0.19,0.93,0.06,28.66,1.97,32.15
36647,-0.09,-0.20,0.96,-3.53,25.59,6.96,32.01
36657,-0.08,-0.25,1.00,-4.32,18.26,10.46,32.06
36667,-0.06,-0.27,1.02,-3.50,8.82,10.49,32.11
36677,-0.02,-0.29,1.01,-2.53,-1.66,9.69,32.11
36687,0.04,-0.27,0.97,-3.53,-2.90,8.99,32.01
36697,0.08,-0.24,0.95,-5.66,2.90,8.85,32.01
36707,0.10,-0.22,0.94,-10.64,14.35,10.09,32.01
36717,0.08,-0.22,0.97,-17.71,23.19,11.65,32.11
36727,0.05,-0.22,1.03,-24.70,25.36,11.86,32.11
36737,0.02,-0.25,1.11,-29.21,19.69,12.09,32.11
36747,0.00,-0.30,1.18,-27.13,8.21,12.64,32.11
36757,0.01,-0.37,1.24,-18.78,-3.24,11.50,32.06
36767,0.06,-0.43,1.27,-6.67,-10.35,9.76,31.97
36777,0.10,-0.42,1.24,2.02,-9.94,6.64,31.97
36787,0.16,-0.40,1.16,10.87,-3.92,3.59,32.06
36797,0.14,-0.33,1.13,10.09,-7.33,2.26,32.06
36807,0.18,-0.31,1.04,8.92,-4.00,-0.55,32.06
36817,0.18,-0.31,1.01,5.95,-3.15,-3.92,32.01
36827,0.18,-0.32,1.01,2.95,-1.80,-8.35,32.06
36837,0.16,-0.32,1.01,0.44,-0.32,-13.16,31.97
36847,0.13,-0.35,1.03,1.05,2.14,-16.99,32.01
36857,0.11,-0.35,1.04,3.30,5.25,-19.89,32.11
36867,0.06,-0.35,1.06,5.45,6.55,-22.27,32.01
36877,0.01,-0.35,1.05,6.37,6.90,-22.95,32.01
36887,-0.04,-0.33,1.03,8.02,5.59,-21.44,32.01
36897,-0.05,-0.30,1.03,8.63,4.61,-18.90,32.01
36907,-0.08,-0.27,1.00,7.77,1.94,-16.08,32.11
36917,-0.08,-0.25,0.97,4.08,-1.54,-13.22,32.11
36927,-0.06,-0.25,0.96,0.63,-4.24,-11.07,32.11
36937,-0.04,-0.28,1.00,-2.73,-7.69,-11.40,31.97
36947,-0.03,-0.30,1.03,-2.55,-11.94,-13.13,31.97
36957,-0.01,-0.30,1.05,-3.54,-13.04,-15.28,32.06
36967,-0.01,-0.29,1.06,-3.60,-13.37,-17.24,32.06
36977,0.01,-0.30,1.09,-2.37,-9.36,-19.95,31.97
36987,0.03,-0.33,1.13,3.57,-2.46,-21.76,32.06
36997,0.05,-0.35,1.18,12.72,8.98,-23.01,32.06
37007,0.01,-0.34,1.18,18.99,24.64,-23.42,31.97
37017,0.01,-0.31,1.20,26.05,39.08,-24.96,31.97
37027,-0.11,-0.33,1.24,24.11,33.33,-20.70,32.01
37037,-0.15,-0.31,1.25,20.73,20.46,-18.79,31.92
37047,-0.13,-0.32,1.28,21.82,6.73,-18.20,32.01
37057,-0.11,-0.31,1.23,26.24,-4.64,-17.60,32.01
37067,-0.08,-0.28,1.16,29.56,-13.57,-17.65,31.92
37077,-0.05,-0.24,1.06,31.51,-17.94,-16.21,32.01
37087,-0.01,-0.20,0.98,30.11,-15.04,-15.73,32.01
37097,0.00,-0.17,0.92,25.63,-7.91,-15.02,32.11
37107,-0.01,-0.15,0.86,21.04,-0.99,-13.01,32.01
37117,-0.03,-0.15,0.85,15.94,3.86,-9.47,32.11
37127,-0.05,-0.14,0.84,12.61,5.94,-4.75,32.11
37137,-0.05,-0.11,0.82,8.06,6.29,0.43,32.06
37147,-0.06,-0.06,0.78,2.11,3.92,5.73,32.06
37157,-0.03,-0.03,0.77,-6.73,1.39,10.92,32.06
37167,-0.01,-0.03,0.77,-15.65,1.79,16.23,32.06
37177,0.03,-0.06,0.80,-23.69,7.85,20.56,32.06
37187,0.06,-0.12,0.87,-27.97,14.20,23.01,32.06
37197,0.06,-0.17,0.93,-28.14,19.05,23.79,32.06
37207,0.06,-0.20,0.96,-29.47,22.05,23.60,32.15
37217,0.06,-0.23,1.03,-30.29,19.65,22.27,32.06
37227,0.07,-0.23,1.04,-26.64,17.82,18.81,32.06
37237,0.05,-0.26,1.08,-25.19,14.73,18.63,32.11
37247,0.08,-0.27,1.06,-24.49,10.78,16.64,32.01
37257,0.07,-0.28,1.06,-22.69,9.28,13.88,32.11
37267,0.08,-0.27,1.04,-19.08,9.83,12.18,32.11
37277,0.09,-0.25,1.00,-17.27,11.16,10.61,32.11
37287,0.09,-0.26,1.00,-15.85,12.53,8.50,32.11
37297,0.10,-0.26,1.00,-14.05,16.43,5.56,32.01
37307,0.07,-0.26,1.01,-13.33,19.98,2.81,32.11
37317,0.04,-0.26,1.02,-11.51,23.02,1.07,32.11
37327,0.01,-0.27,1.02,-9.08,25.91,0.05,32.01
37337,-0.02,-0.26,1.02,-7.91,27.44,-1.10,32.01
37347,-0.06,-0.29,1.03,-6.73,27.08,-1.86,32.01
37357,-0.08,-0.29,1.04,-4.61,24.78,-2.21,32.06
37367,-0.11,-0.29,1.03,-3.05,16.23,-1.05,32.06
37377,-0.11,-0.26,1.01,-4.31,8.44,2.00,32.06
37387,-0.09,-0.24,0.98,-8.14,0.79,4.44,32.06
37397,0.00,-0.20,0.97,-13.18,-0.34,7.62,32.06
37407,0.03,-0.26,0.87,-8.14,4.73,5.79,32.06
37417,0.02,-0.25,0.95,-21.34,1.69,9.73,32.06
37427,0.03,-0.27,0.99,-19.36,5.37,8.55,32.06
37437,0.02,-0.30,1.02,-18.69,10.75,6.84,32.06
37447,-0.00,-0.30,1.03,-16.58,11.18,4.41,32.01
37457,-0.01,-0.30,1.04,-15.30,11.77,3.07,32.11
37467,-0.01,-0.29,1.03,-15.31,14.34,1.83,32.11
37477,-0.01,-0.30,1.04,-15.91,17.80,0.98,32.01
37487,-0.03,-0.29,1.06,-15.98,20.50,0.11,32.11
37497,-0.05,-0.31,1.06,-14.72,23.18,0.12,32.01
37507,-0.06,-0.30,1.07,-13.86,24.09,-0.11,32.01
37517,-0.08,-0.31,1.09,-14.23,22.73,-1.13,32.01
37527,-0.10,-0.32,1.12,-12.44,18.95,-1.30,32.11
37537,-0.11,-0.33,1.12,-10.67,14.87,-1.89,32.11
37547,-0.11,-0.32,1.12,-9.18,11.02,-1.98,32.01
37557,-0.11,-0.30,1.12,-7.62,7.39,-1.63,31.97
37567,-0.11,-0.30,1.11,-6.76,4.78,-0.27,32.06
37577,-0.10,-0.28,1.08,-5.76,1.77,1.40,32.06
37587,-0.10,-0.29,1.06,-4.98,0.72,3.69,32.06
37597,-0.07,-0.30,1.06,-5.08,1.48,4.09,32.15
37607,-0.06,-0.30,1.06,-4.95,1.92,4.12,32.06
37617,-0.05,-0.30,1.05,-4.52,2.17,3.89,32.11
37627,-0.05,-0.30,1.05,-4.49,1.71,3.74,32.06
37637,-0.04,-0.29,1.04,-4.38,1.73,3.01,32.06
37647,-0.03,-0.29,1.03,-4.40,2.53,1.48,32.01
37657,-0.03,-0.30,1.03,-3.33,4.37,0.58,32.01
37667,-0.03,-0.29,1.02,-2.64,7.42,0.15,32.20
37677,-0.06,-0.29,1.04,-2.98,8.70,-0.02,32.11
37687,-0.07,-0.28,1.05,-2.93,6.98,-0.24,32.01
37697,-0.08,-0.27,1.04,-3.40,4.58,-0.37,32.11
37707,-0.08,-0.28,1.05,-3.39,2.53,-0.31,32.11
37717,-0.07,-0.29,1.06,-2.60,2.56,-0.17,32.11
37727,-0.07,-0.30,1.07,-0.89,2.46,-0.34,32.11
37737,-0.07,-0.31,1.08,0.02,1.54,-0.79,32.06
37747,-0.08,-0.31,1.07,1.34,-0.87,-1.48,32.06
37757,-0.07,-0.30,1.05,1.19,-2.34,-2.05,32.06
37767,-0.07,-0.29,1.04,0.85,-4.49,-2.18,32.06
37777,-0.07,-0.29,1.03,0.78,-4.70,-1.79,31.97
37787,-0.07,-0.29,1.02,1.22,-3.82,-1.31,32.06
37797,-0.07,-0.29,1.02,1.95,-2.47,-0.67,32.06
37807,-0.08,-0.29,1.01,1.68,-3.77,0.08,32.06
37817,-0.06,-0.27,0.99,0.08,-5.71,0.82,32.06
37827,-0.04,-0.27,0.99,-0.99,-7.34,0.56,32.11
37837,-0.05,-0.26,0.98,-2.52,-8.35,0.67,32.11
37847,-0.04,-0.26,0.98,-2.98,-8.32,1.45,32.01
37857,-0.03,-0.26,0.96,-3.57,-5.94,2.24,32.11
37867,-0.03,-0.25,0.97,-5.31,-2.92,3.05,32.01
37877,-0.03,-0.25,0.97,-8.46,-0.06,2.93,32.01
37887,-0.02,-0.27,1.00,-10.95,0.87,2.09,32.11
37897,-0.04,-0.27,1.04,-11.57,0.26,1.73,32.11
37907,-0.04,-0.27,1.05,-10.46,-0.78,1.85,32.11
37917,-0.03,-0.28,1.07,-8.56,-1.13,1.73,32.01
37927,-0.03,-0.30,1.08,-5.83,-0.34,1.10,32.11
37937,-0.04,-0.30,1.09,-3.24,-0.17,0.90,32.06
37947,-0.04,-0.29,1.06,-2.44,-0.90,0.82,32.15
37957,-0.04,-0.28,1.04,-2.79,-2.11,0.44,32.06
37967,-0.04,-0.28,1.03,-3.16,-4.82,-0.09,32.06
37977,-0.03,-0.27,1.02,-3.77,-6.81,-0.87,32.06
37987,-0.02,-0.26,1.01,-4.52,-8.09,-1.56,32.15
37997,-0.02,-0.26,1.00,-6.26,-8.18,-2.03,32.01
38007,-0.02,-0.27,0.99,-6.78,-8.08,-1.77,32.06
38017,-0.00,-0.28,0.99,-6.64,-6.32,-1.89,32.06
38027,-0.00,-0.29,0.99,-5.80,-4.61,-2.02,32.01
38037,-0.00,-0.30,1.00,-5.24,-3.21,-2.81,32.01
38047,0.00,-0.30,1.01,-3.59,-2.17,-3.28,32.11
38057,-0.01,-0.30,1.00,-3.02,-0.66,-4.21,32.11
38067,-0.02,-0.30,1.00,-2.81,-0.73,-4.76,32.11
38077,-0.03,-0.29,0.97,-3.76,-1.31,-4.70,32.01
38087,-0.03,-0.29,1.00,-4.12,-2.05,-4.84,32.11
38097,-0.02,-0.30,0.99,-5.19,-2.05,-5.60,32.11
38107,-0.02,-0.28,0.98,-6.32,-1.76,-6.18,32.01
38117,-0.03,-0.28,0.99,-6.89,-1.15,-6.20,32.01
38127,-0.03,-0.28,0.99,-7.63,-0.53,-6.47,32.11
38137,-0.04,-0.29,1.01,-7.56,0.05,-6.81,32.15
38147,-0.04,-0.30,1.03,-6.11,-0.23,-7.25,32.06
38157,-0.03,-0.30,1.05,-4.61,0.56,-7.76,32.06
38167,-0.04,-0.29,1.04,-3.21,1.89,-7.88,32.15
38177,-0.04,-0.27,1.04,-2.95,3.82,-8.61,32.06
38187,-0.04,-0.26,1.05,-3.71,6.31,-9.21,32.06
38197,-0.06,-0.25,1.07,-4.53,8.40,-9.07,32.06
38207,-0.08,-0.26,1.07,-4.52,9.79,-7.82,32.11
38217,-0.11,-0.26,1.10,-4.23,9.21,-6.44,32.06
38227,-0.11,-0.26,1.11,-3.45,7.04,-5.22,32.06
38237,-0.12,-0.26,1.10,-3.59,2.89,-3.85,32.11
