Millis,Acce_X,Acce_Y,Acce_Z,Gyro_X,Gyro_Y,Gyro_Z,Temp
90637,0.07,-0.41,0.91,-14.76,-8.03,3.54,31.82
90647,0.10,-0.42,0.89,-17.51,-7.86,3.80,31.87
90657,0.14,-0.42,0.89,-19.86,-2.32,3.63,31.78
90667,0.13,-0.46,0.91,-21.22,3.21,1.98,31.87
90677,0.13,-0.51,0.96,-19.65,8.12,-0.96,31.87
90687,0.10,-0.55,1.01,-15.02,11.07,-4.15,31.78
90697,0.07,-0.56,1.04,-9.08,10.98,-6.49,31.78
90707,0.06,-0.56,1.03,-3.45,9.16,-9.08,31.82
90717,0.06,-0.54,1.01,-0.46,6.53,-11.30,31.92
90727,0.07,-0.51,0.99,0.41,6.02,-14.43,31.92
90737,0.07,-0.50,0.98,-1.97,6.53,-17.73,31.92
90747,0.04,-0.51,0.98,-2.40,7.02,-20.41,31.87
90757,0.00,-0.53,0.99,-2.69,4.98,-19.50,31.82
90767,0.00,-0.53,0.99,-0.72,4.98,-17.22,31.73
90777,0.02,-0.57,0.99,0.93,0.72,-16.02,31.87
90787,0.05,-0.58,0.96,2.79,-2.27,-16.98,31.87
90797,0.08,-0.58,0.93,3.74,-5.59,-20.17,31.87
90807,0.09,-0.59,0.90,3.80,-5.31,-22.44,31.97
90817,0.08,-0.58,0.90,1.40,-3.79,-24.44,31.78
90827,0.06,-0.57,0.91,1.51,-1.34,-26.15,31.87
90837,0.02,-0.60,0.93,0.64,-2.34,-28.98,31.87
90847,-0.01,-0.58,0.94,-0.11,-8.41,-31.10,31.82
90857,-0.03,-0.57,0.96,-0.47,-16.03,-33.16,31.92
90867,-0.03,-0.59,0.97,0.23,-23.98,-34.24,31.82
90877,-0.01,-0.60,0.96,1.91,-28.53,-33.79,31.92
90887,0.00,-0.61,0.93,5.04,-25.56,-28.46,31.92
90897,0.05,-0.61,0.90,12.35,-15.62,-20.38,31.92
90907,0.12,-0.58,0.81,20.18,2.17,-12.99,31.97
90917,0.16,-0.53,0.76,22.23,17.60,-11.34,31.87
90927,0.18,-0.49,0.73,13.53,35.85,-14.73,31.87
90937,0.06,-0.51,0.83,3.34,39.48,-22.08,31.78
90947,0.02,-0.56,0.91,-6.82,41.59,-28.32,31.87
90957,-0.08,-0.61,1.03,-8.95,36.85,-31.21,31.97
90967,-0.11,-0.66,1.02,-3.97,47.13,-31.71,31.87
90977,-0.08,-0.62,1.02,12.73,25.39,-23.79,31.92
90987,-0.08,-0.55,0.95,19.91,27.19,-16.09,31.82
90997,0.01,-0.48,0.89,24.81,27.56,-11.63,31.82
91007,0.07,-0.42,0.83,18.26,30.67,-13.85,31.82
91017,0.07,-0.38,0.82,4.08,28.61,-18.34,31.82
91027,0.01,-0.37,0.87,-14.64,28.69,-24.55,31.92
91037,-0.08,-0.42,0.99,-26.73,24.56,-28.27,31.92
91047,-0.13,-0.42,1.07,-35.01,15.89,-27.42,31.87
91057,-0.17,-0.46,1.12,-36.70,1.13,-25.66,31.87
91067,-0.16,-0.49,1.12,-31.04,-12.63,-20.17,31.87
91077,-0.07,-0.51,1.08,-18.17,-16.84,-9.62,31.87
91087,0.06,-0.49,1.00,-5.48,-9.33,-1.19,31.87
91097,0.17,-0.44,0.91,-0.98,7.16,2.78,31.87
91107,0.17,-0.40,0.93,-3.44,12.93,1.77,31.78
91117,0.16,-0.40,0.94,-14.96,28.40,-3.33,31.82
91127,0.03,-0.47,1.08,-22.32,26.85,-6.63,31.82
91137,-0.06,-0.50,1.17,-25.77,17.79,-6.56,31.73
91147,-0.10,-0.53,1.19,-26.38,4.20,-4.44,31.82
91157,-0.10,-0.53,1.18,-24.66,-11.24,-2.12,31.92
91167,-0.05,-0.52,1.12,-18.05,-20.05,-0.96,31.82
91177,0.00,-0.50,1.04,-12.99,-26.67,-0.55,31.87
91187,0.05,-0.47,0.95,-11.92,-27.10,0.41,31.87
91197,0.10,-0.43,0.90,-13.31,-21.04,2.52,31.87
91207,0.10,-0.40,0.89,-17.50,-10.12,5.25,31.87
91217,0.05,-0.42,0.98,-23.04,-3.50,7.95,31.87
91227,0.02,-0.44,1.04,-24.17,-0.96,9.56,31.87
91237,-0.01,-0.49,1.08,-24.95,4.17,10.31,31.97
91247,-0.02,-0.52,1.12,-21.40,2.09,10.40,31.78
91257,-0.04,-0.53,1.11,-17.02,-3.02,9.34,31.92
91267,-0.04,-0.52,1.09,-12.18,-12.47,9.36,31.92
91277,0.00,-0.50,1.03,-6.58,-22.79,8.55,31.82
91287,0.08,-0.48,0.96,-3.33,-29.54,4.73,31.92
91297,0.17,-0.45,0.88,-4.08,-31.11,-1.08,31.92
91307,0.23,-0.42,0.82,-5.30,-25.48,-6.41,31.87
91317,0.22,-0.40,0.81,-6.98,-12.69,-8.32,31.92
91327,0.17,-0.39,0.86,-6.78,4.32,-3.94,31.82
91337,0.12,-0.40,0.92,-4.11,19.95,3.50,31.87
91347,0.06,-0.43,1.00,-2.89,25.79,7.47,31.97
91357,0.02,-0.45,1.05,-1.53,20.43,6.99,31.78
91367,-0.01,-0.43,1.07,-0.81,7.60,4.98,31.87
91377,-0.04,-0.41,1.07,0.14,-6.79,2.81,31.97
91387,-0.01,-0.41,1.02,-1.65,-15.88,3.15,31.78
91397,0.04,-0.41,0.97,-3.56,-19.88,6.00,31.87
91407,0.08,-0.42,0.95,-6.99,-17.01,8.40,31.82
91417,0.12,-0.43,0.96,-6.24,-7.57,12.37,31.92
91427,0.12,-0.45,1.00,-3.22,6.47,17.65,31.82
91437,0.10,-0.46,1.03,1.83,17.39,20.82,31.92
91447,0.06,-0.47,1.07,5.54,20.53,19.40,31.73
91457,0.04,-0.47,1.07,6.20,14.35,13.44,31.82
91467,0.00,-0.44,1.06,5.05,3.25,7.08,31.82
91477,0.00,-0.41,0.99,-4.03,-11.71,-0.02,31.78
91487,-0.01,-0.38,0.92,-12.96,-22.41,-4.56,31.87
91497,0.03,-0.38,0.90,-22.31,-20.90,-3.25,31.87
91507,0.05,-0.37,0.85,-29.57,-15.08,-0.75,31.97
91517,0.00,-0.42,0.93,-34.29,-2.55,7.30,31.87
91527,-0.04,-0.44,0.99,-31.28,7.40,17.08,31.87
91537,-0.05,-0.48,1.07,-28.78,18.73,24.23,31.87
91547,-0.10,-0.50,1.12,-23.21,12.35,27.51,31.92
91557,-0.06,-0.54,1.12,-17.42,9.13,23.88,31.82
91567,-0.07,-0.55,1.12,-15.05,-3.02,16.99,31.82
91577,-0.04,-0.54,1.09,-12.66,-15.05,11.80,31.92
91587,-0.02,-0.53,1.06,-13.37,-26.69,8.02,31.92
91597,0.04,-0.55,1.03,-15.82,-34.69,5.01,31.82
91607,0.08,-0.56,1.04,-18.78,-39.02,3.69,31.87
91617,0.12,-0.57,1.02,-15.47,-41.36,4.29,31.87
91627,0.16,-0.56,1.00,-8.52,-36.82,8.21,31.87
91637,0.17,-0.56,0.99,1.01,-28.93,13.85,31.87
91647,0.17,-0.55,0.97,10.27,-18.52,20.66,31.87
91657,0.13,-0.52,0.90,14.41,-16.82,24.70,31.87
91667,0.10,-0.48,0.91,13.57,-22.55,26.72,31.87
91677,0.14,-0.47,0.86,7.97,-29.24,26.60,31.87
91687,0.20,-0.45,0.82,0.96,-27.77,23.01,31.92
91697,0.21,-0.43,0.83,-2.09,-32.81,19.91,31.82
91707,0.23,-0.42,0.82,-4.79,-30.69,17.01,31.82
91717,0.22,-0.42,0.82,-7.08,-26.64,15.88,31.82
91727,0.20,-0.39,0.82,-9.56,-24.82,15.62,31.82
91737,0.19,-0.37,0.82,-10.43,-26.95,20.02,31.87
91747,0.20,-0.35,0.78,-12.99,-20.18,25.51,31.82
91757,0.22,-0.36,0.79,-16.75,-13.57,30.29,31.87
91767,0.22,-0.38,0.81,-20.73,-7.48,31.53,31.87
91777,0.24,-0.41,0.84,-25.31,-4.27,29.08,31.87
91787,0.23,-0.45,0.88,-31.02,-7.05,23.05,31.87
91797,0.21,-0.45,0.92,-34.06,-11.25,17.08,31.87
91807,0.18,-0.46,0.98,-33.53,-19.22,13.13,31.97
91817,0.18,-0.49,0.98,-30.27,-22.29,11.57,31.92
91827,0.13,-0.49,0.98,-28.00,-27.11,14.08,31.82
91837,0.14,-0.48,0.95,-22.84,-23.19,20.89,31.82
91847,0.15,-0.45,0.91,-19.88,-21.69,28.61,31.92
91857,0.17,-0.47,0.91,-18.52,-14.73,35.65,31.82
91867,0.19,-0.48,0.90,-18.95,-10.87,39.05,31.97
91877,0.20,-0.52,0.92,-19.59,-5.88,41.21,31.92
91887,0.19,-0.56,0.96,-18.58,-7.88,40.55,31.78
91897,0.18,-0.58,1.00,-16.09,-19.01,36.99,31.97
91907,0.18,-0.60,1.00,-14.03,-34.40,29.02,31.87
91917,0.19,-0.61,0.99,-11.56,-52.50,19.89,31.87
91927,0.22,-0.57,0.92,-10.20,-61.53,14.63,31.87
91937,0.25,-0.54,0.86,-8.46,-62.70,16.14,31.87
91947,0.30,-0.49,0.77,-5.04,-41.62,23.79,31.87
91957,0.30,-0.47,0.74,-1.30,-15.95,35.53,32.01
91967,0.25,-0.47,0.75,-1.22,6.35,45.44,31.92
91977,0.20,-0.49,0.81,-2.99,16.18,50.76,31.82
91987,0.14,-0.51,0.86,-5.94,11.21,50.63,31.92
91997,0.14,-0.54,0.87,-9.77,-0.96,46.92,31.87
92007,0.12,-0.49,0.95,-16.00,-23.92,36.52,31.73
92017,0.17,-0.51,0.90,-14.87,-46.05,28.99,31.92
92027,0.21,-0.51,0.87,-13.79,-52.03,23.95,31.87
92037,0.24,-0.47,0.82,-10.20,-51.83,24.78,31.87
92047,0.31,-0.45,0.77,-7.53,-38.27,29.54,31.87
92057,0.28,-0.42,0.77,-6.50,-21.88,35.79,31.87
92067,0.28,-0.41,0.78,-8.58,-11.30,42.20,31.97
92077,0.25,-0.41,0.83,-13.34,-10.78,43.83,31.87
92087,0.23,-0.43,0.88,-20.52,-20.34,40.12,31.92
92097,0.21,-0.45,0.94,-25.22,-34.82,34.40,31.92
92107,0.22,-0.49,0.99,-23.15,-49.74,28.96,31.92
92117,0.28,-0.51,0.97,-16.67,-54.78,25.92,31.82
92127,0.34,-0.50,0.89,-10.31,-49.54,24.00,31.87
92137,0.38,-0.48,0.87,-7.22,-36.06,23.27,31.82
92147,0.36,-0.47,0.87,-6.02,-27.60,22.17,31.92
92157,0.34,-0.46,0.88,-5.56,-23.13,21.54,31.87
92167,0.34,-0.46,0.90,-8.92,-23.08,20.34,31.87
92177,0.31,-0.46,0.92,-13.53,-23.98,18.55,31.87
92187,0.28,-0.46,0.95,-16.35,-22.92,19.22,31.87
92197,0.25,-0.50,0.98,-16.35,-21.56,20.08,31.87
92207,0.22,-0.53,0.98,-13.56,-22.15,20.40,31.87
92217,0.22,-0.53,0.95,-9.88,-21.34,21.34,31.92
92227,0.25,-0.56,0.95,-5.50,-21.98,18.35,31.82
92237,0.26,-0.56,0.93,-2.89,-21.63,14.14,31.92
92247,0.24,-0.51,0.90,-5.36,-20.98,13.13,31.92
92257,0.21,-0.48,0.91,-11.18,-20.03,15.25,31.87
92267,0.20,-0.48,0.94,-17.57,-12.40,20.66,31.82
92277,0.18,-0.51,0.98,-20.53,-7.57,25.44,31.82
92287,0.18,-0.56,1.01,-22.95,-1.21,29.25,31.87
92297,0.19,-0.61,1.04,-20.90,5.91,30.37,31.78
92307,0.16,-0.63,1.10,-15.18,6.55,30.78,31.87
92317,0.16,-0.64,1.11,-12.67,6.06,30.27,31.87
92327,0.18,-0.60,1.20,-14.31,6.24,25.27,31.78
92337,0.15,-0.60,1.12,-12.52,-10.29,19.63,31.87
92347,0.16,-0.58,1.10,-12.70,-18.15,13.59,31.92
92357,0.20,-0.55,1.02,-8.46,-23.76,11.42,31.92
92367,0.25,-0.52,0.97,-3.85,-22.50,10.66,31.92
92377,0.26,-0.51,0.92,1.53,-16.38,9.65,31.92
92387,0.26,-0.50,0.88,3.83,-8.03,9.04,31.97
92397,0.21,-0.47,0.84,1.62,-4.75,6.00,31.92
92407,0.20,-0.45,0.84,0.24,-0.75,6.53,31.87
92417,0.20,-0.41,0.80,-2.82,1.76,8.23,31.87
92427,0.17,-0.39,0.79,-8.95,2.95,10.00,31.78
92437,0.17,-0.43,0.82,-15.59,0.11,12.78,31.78
92447,0.19,-0.47,0.85,-16.52,-3.47,13.77,31.87
92457,0.19,-0.54,0.86,-17.77,-3.44,13.91,31.87
92467,0.22,-0.59,0.88,-15.34,-1.97,12.64,31.87
92477,0.24,-0.61,0.88,-13.16,0.49,9.83,31.92
92487,0.23,-0.58,0.85,-12.85,1.95,8.24,31.92
92497,0.20,-0.58,0.87,-15.37,3.30,7.86,31.82
92507,0.16,-0.57,0.88,-18.60,4.49,9.94,32.01
92517,0.14,-0.59,0.92,-22.15,9.68,13.77,31.87
92527,0.13,-0.61,0.96,-21.15,13.02,17.85,31.92
92537,0.10,-0.63,0.99,-18.09,13.24,19.68,31.92
92547,0.09,-0.66,1.01,-14.11,8.85,18.70,31.87
92557,0.09,-0.66,1.00,-9.44,1.47,16.35,31.87
92567,0.11,-0.67,0.98,-3.88,-5.57,14.47,31.87
92577,0.15,-0.64,0.92,-2.12,-7.21,12.18,31.87
92587,0.14,-0.63,0.91,-3.88,-8.79,10.23,31.87
92597,0.12,-0.60,0.93,-6.52,-8.44,11.33,31.87
92607,0.11,-0.59,0.96,-6.47,-8.17,13.68,31.92
92617,0.11,-0.61,0.97,-3.50,-7.68,16.40,31.82
92627,0.16,-0.63,0.95,4.08,-6.56,15.65,31.92
92637,0.18,-0.60,0.88,7.83,-2.70,13.57,32.01
92647,0.10,-0.52,0.95,2.76,-14.05,11.66,31.78
92657,0.12,-0.46,0.97,4.85,-11.69,8.72,31.82
92667,0.15,-0.48,0.88,7.56,-3.63,7.88,31.87
92677,0.12,-0.51,0.90,6.50,-9.51,5.57,31.87
92687,0.11,-0.50,0.85,6.31,-9.85,5.24,31.87
92697,0.13,-0.51,0.85,5.97,-13.53,4.90,31.87
92707,0.20,-0.50,0.86,4.31,-8.79,6.79,31.87
92717,0.24,-0.53,0.84,4.93,-3.79,4.82,31.87
92727,0.22,-0.57,0.86,10.15,-0.03,3.73,31.78
92737,0.20,-0.55,0.82,10.73,-1.71,1.11,31.73
92747,0.17,-0.50,0.81,4.92,-0.31,0.26,31.82
92757,0.13,-0.49,0.83,-0.38,-2.14,0.41,31.92
92767,0.11,-0.49,0.83,-5.02,-2.55,2.81,31.82
92777,0.12,-0.50,0.83,-10.18,-1.22,3.68,31.87
92787,0.12,-0.54,0.87,-13.25,-1.71,3.76,31.92
92797,0.12,-0.57,0.88,-13.56,-2.17,3.77,31.73
92807,0.12,-0.60,0.90,-10.63,-1.69,3.56,31.87
92817,0.12,-0.62,0.91,-7.24,1.36,3.71,31.97
92827,0.14,-0.62,0.89,-5.86,5.30,4.09,31.78
92837,0.16,-0.61,0.88,-4.78,12.55,5.62,31.87
92847,0.15,-0.60,0.88,-5.21,19.57,7.25,31.87
92857,0.12,-0.58,0.90,-5.51,21.73,8.02,31.87
92867,0.11,-0.57,0.92,-8.02,19.02,6.99,31.82
92877,0.12,-0.60,0.95,-8.05,13.28,5.08,31.92
92887,0.11,-0.62,0.97,-6.63,6.78,2.09,31.92
92897,0.12,-0.61,0.96,-6.06,-0.23,-0.66,31.92
92907,0.17,-0.61,0.94,-4.21,-3.01,-2.61,31.82
92917,0.21,-0.61,0.91,-1.07,-1.18,-4.82,31.92
92927,0.21,-0.57,0.86,1.13,4.53,-5.33,31.82
92937,0.20,-0.55,0.82,1.60,9.16,-4.72,31.97
92947,0.20,-0.53,0.81,-0.79,12.53,-4.84,31.87
92957,0.19,-0.55,0.79,-3.53,15.82,-4.15,31.87
92967,0.16,-0.56,0.82,-9.13,12.69,-5.27,31.97
92977,0.14,-0.60,0.83,-11.30,11.42,-6.00,31.87
92987,0.11,-0.62,0.87,-11.10,7.37,-5.83,31.97
92997,0.12,-0.64,0.87,-9.02,3.36,-4.87,31.87
93007,0.14,-0.66,0.88,-7.45,0.70,-6.29,31.82
93017,0.16,-0.65,0.85,-7.27,-0.27,-8.03,31.82
93027,0.15,-0.63,0.84,-7.51,1.07,-8.63,31.82
93037,0.13,-0.61,0.83,-8.90,3.60,-6.64,31.82
93047,0.13,-0.60,0.83,-10.46,7.15,-3.74,31.92
93057,0.11,-0.63,0.85,-12.64,9.66,-1.40,31.92
93067,0.11,-0.65,0.87,-13.47,9.97,-0.66,31.87
93077,0.09,-0.65,0.90,-12.08,8.73,-0.63,31.87
93087,0.08,-0.66,0.93,-9.25,4.14,-1.42,31.78
93097,0.10,-0.67,0.91,-5.40,0.15,-2.05,31.87
93107,0.12,-0.65,0.91,-2.21,-2.89,-3.56,31.87
93117,0.12,-0.62,0.87,-1.07,-5.16,-4.41,31.87
93127,0.15,-0.60,0.85,-1.88,-3.37,-3.24,31.87
93137,0.17,-0.58,0.85,-2.12,1.13,-1.21,31.82
93147,0.18,-0.58,0.87,-3.08,6.84,0.47,31.92
93157,0.20,-0.59,0.89,-1.59,10.75,1.05,31.92
93167,0.20,-0.60,0.89,0.99,11.45,0.03,31.82
93177,0.20,-0.60,0.89,2.49,8.93,-3.07,31.82
93187,0.19,-0.59,0.90,3.04,4.05,-7.47,31.82
93197,0.19,-0.57,0.89,3.28,-0.98,-12.09,31.92
93207,0.18,-0.56,0.87,3.11,-3.94,-14.79,31.87
93217,0.19,-0.54,0.83,2.17,-1.56,-14.52,31.87
93227,0.18,-0.54,0.83,0.31,3.56,-13.53,31.87
93237,0.18,-0.53,0.86,-0.84,10.31,-11.39,31.87
93247,0.18,-0.54,0.89,-1.34,16.20,-11.21,31.87
93257,0.18,-0.53,0.91,0.05,19.56,-12.64,31.87
93267,0.17,-0.53,0.90,1.21,20.05,-16.12,31.87
93277,0.16,-0.52,0.90,0.78,20.08,-19.62,31.82
93287,0.13,-0.51,0.91,0.78,21.73,-21.27,31.92
93297,0.11,-0.52,0.93,-0.79,24.03,-20.56,31.82
93307,0.09,-0.52,0.96,-2.09,26.11,-17.88,31.73
93317,0.10,-0.54,0.99,-3.40,26.76,-17.63,31.82
93327,0.09,-0.55,1.04,-4.08,24.75,-19.79,31.92
93337,0.10,-0.55,1.04,-0.20,20.53,-23.45,31.87
93347,0.11,-0.55,1.03,3.33,17.21,-26.56,31.97
93357,0.12,-0.54,0.99,6.81,16.70,-27.95,31.87
93367,0.14,-0.52,0.96,9.08,20.29,-28.03,31.87
93377,0.16,-0.51,0.96,9.82,26.47,-26.64,31.78
93387,0.17,-0.51,0.95,12.17,32.85,-24.37,31.78
93397,0.16,-0.52,0.97,17.54,38.73,-22.35,31.78
93407,0.15,-0.52,0.99,23.51,39.76,-21.34,31.82
93417,0.14,-0.49,1.02,29.92,35.83,-22.17,31.82
93427,0.16,-0.49,1.00,34.70,23.68,-27.77,31.82
93437,0.24,-0.49,0.91,31.56,14.18,-38.73,31.82
93447,0.26,-0.47,0.88,23.83,6.06,-48.18,31.82
93457,0.28,-0.44,0.84,20.41,9.69,-49.05,31.92
93467,0.29,-0.46,0.82,20.14,23.91,-43.92,31.78
93477,0.29,-0.49,0.83,21.95,38.37,-39.40,31.87
93487,0.24,-0.51,0.88,23.85,47.42,-36.85,31.87
93497,0.16,-0.51,0.92,27.69,47.66,-33.40,31.87
93507,0.08,-0.50,0.98,33.92,42.63,-27.98,31.87
93517,0.02,-0.50,1.03,39.71,28.78,-28.31,31.78
93527,0.05,-0.52,1.06,38.49,-2.23,-44.95,31.87
93537,0.12,-0.58,1.05,27.40,-39.19,-71.95,31.87
93547,0.06,-0.57,1.10,23.13,-77.40,-91.79,31.87
93557,0.12,-0.53,1.05,28.73,-94.27,-98.29,31.92
93567,0.27,-0.51,0.93,34.37,-79.82,-93.54,31.82
93577,0.42,-0.45,0.79,35.63,-38.82,-81.02,31.82
93587,0.49,-0.41,0.72,33.88,16.21,-66.52,31.92
93597,0.43,-0.39,0.77,30.81,57.63,-54.81,31.78
93607,0.35,-0.39,0.87,24.38,79.40,-47.16,31.82
93617,0.23,-0.40,1.00,21.65,78.23,-43.62,31.92
93627,0.10,-0.40,1.08,20.70,65.66,-42.53,31.87
93637,0.04,-0.43,1.15,26.79,44.24,-41.54,31.87
93647,0.03,-0.40,1.13,29.36,22.78,-39.97,31.78
93657,0.03,-0.40,1.06,29.85,6.31,-37.57,31.78
93667,0.06,-0.41,1.02,28.11,-2.12,-35.59,31.78
93677,0.14,-0.43,0.98,22.20,-9.66,-39.48,31.97
93687,0.18,-0.46,0.99,17.51,-14.20,-45.34,31.87
93697,0.23,-0.44,0.96,17.88,-13.33,-48.31,31.82
93707,0.25,-0.40,0.93,22.61,-9.37,-44.56,31.92
93717,0.29,-0.34,0.83,24.53,10.02,-35.74,31.82
93727,0.26,-0.31,0.84,21.56,21.04,-28.20,31.92
93737,0.24,-0.28,0.85,13.54,31.91,-22.18,31.82
93747,0.18,-0.27,0.89,5.77,31.28,-18.27,31.82
93757,0.16,-0.25,0.94,-1.24,26.63,-15.34,31.82
93767,0.09,-0.29,0.97,-4.41,13.63,-16.53,31.87
93777,0.13,-0.33,0.98,-7.25,3.83,-21.31,31.87
93787,0.15,-0.36,1.00,-6.32,-3.28,-28.69,31.87
93797,0.18,-0.40,0.95,-1.28,-2.96,-33.62,31.87
93807,0.21,-0.36,0.85,1.76,-0.41,-35.42,31.78
93817,0.22,-0.30,0.78,-2.00,7.22,-33.33,31.78
93827,0.23,-0.27,0.77,-10.93,15.74,-28.17,31.87
93837,0.22,-0.28,0.83,-20.24,18.63,-23.97,31.87
93847,0.22,-0.31,0.87,-28.12,14.38,-23.77,31.82
93857,0.24,-0.37,0.90,-30.90,6.95,-28.21,31.82
93867,0.29,-0.43,0.94,-27.02,2.31,-36.23,31.82
93877,0.31,-0.48,0.96,-18.05,-0.87,-43.68,31.82
93887,0.32,-0.44,0.92,-11.13,1.44,-49.02,31.82
93897,0.29,-0.39,0.89,-9.68,4.27,-50.96,31.87
93907,0.26,-0.34,0.90,-11.76,6.35,-49.98,31.92
93917,0.25,-0.30,0.90,-15.89,8.76,-46.84,31.78
93927,0.21,-0.26,0.91,-19.34,11.71,-40.98,31.87
93937,0.20,-0.28,0.94,-18.05,14.29,-34.93,31.87
93947,0.18,-0.30,0.94,-16.87,13.22,-28.60,31.78
93957,0.16,-0.29,0.93,-18.02,7.66,-21.56,31.87
93967,0.24,-0.34,0.94,-19.98,5.71,-18.08,31.87
93977,0.31,-0.41,0.97,-23.39,2.40,-17.71,31.87
93987,0.36,-0.44,0.99,-24.00,3.77,-18.15,31.82
93997,0.37,-0.45,1.00,-21.44,5.27,-17.69,31.82
94007,0.38,-0.45,1.01,-17.16,8.89,-17.98,31.82
94017,0.38,-0.43,1.01,-12.56,6.84,-19.34,31.92
94027,0.34,-0.41,1.00,-14.20,8.79,-20.75,31.82
94037,0.29,-0.41,1.02,-12.44,7.69,-22.64,31.92
94047,0.28,-0.43,1.03,-10.96,5.36,-19.65,31.73
94057,0.23,-0.42,1.01,-13.95,5.68,-20.15,31.87
94067,0.25,-0.43,1.01,-16.93,4.93,-20.69,31.78
94077,0.23,-0.43,1.03,-15.25,5.76,-19.56,31.78
94087,0.23,-0.42,1.02,-14.61,8.82,-18.50,31.87
94097,0.23,-0.42,1.03,-14.93,11.62,-18.70,31.78
94107,0.21,-0.43,1.03,-12.69,10.96,-19.22,31.78
94117,0.18,-0.44,1.02,-10.32,8.50,-18.60,31.78
94127,0.16,-0.41,1.00,-8.89,5.04,-15.77,31.73
94137,0.16,-0.39,0.99,-8.85,3.22,-10.93,31.92
94147,0.16,-0.40,0.95,-9.68,3.73,-6.55,31.82
94157,0.17,-0.41,0.97,-11.01,4.44,-2.32,31.82
94167,0.20,-0.43,0.97,-10.79,9.74,-0.09,31.82
94177,0.22,-0.46,1.01,-10.26,9.13,-2.58,31.82
94187,0.25,-0.49,1.03,-9.94,8.50,-9.73,31.82
94197,0.23,-0.51,1.07,-8.96,2.96,-18.92,31.87
94207,0.21,-0.50,1.10,-7.39,-5.57,-25.80,31.87
94217,0.18,-0.49,1.11,-3.54,-13.95,-28.43,31.87
94227,0.18,-0.47,1.09,1.08,-16.27,-25.39,31.87
94237,0.21,-0.44,1.05,8.67,-12.20,-15.89,31.78
94247,0.25,-0.40,1.00,13.13,-1.51,-5.80,31.87
94257,0.25,-0.37,0.95,12.46,4.41,1.57,31.87
94267,0.26,-0.36,0.95,8.41,6.69,6.55,31.82
94277,0.22,-0.38,0.98,4.44,3.13,8.84,31.82
94287,0.23,-0.40,0.98,2.81,-2.06,8.58,31.92
94297,0.26,-0.43,0.98,1.89,-8.55,5.86,31.82
94307,0.30,-0.46,0.96,2.98,-9.44,2.89,31.82
94317,0.35,-0.48,0.97,6.79,-7.79,1.37,31.92
94327,0.40,-0.50,0.96,10.70,-3.69,-0.21,31.87
94337,0.41,-0.48,0.93,10.18,5.63,-2.18,31.87
94347,0.38,-0.46,0.93,10.89,10.44,-1.94,31.78
94357,0.35,-0.41,0.90,10.06,15.39,0.49,31.87
94367,0.32,-0.39,0.87,7.47,17.27,2.90,31.78
94377,0.29,-0.37,0.88,2.17,17.02,4.18,31.87
94387,0.26,-0.38,0.89,-4.11,12.69,4.35,31.87
94397,0.25,-0.38,0.92,-8.64,6.50,3.51,31.87
94407,0.25,-0.41,0.92,-9.19,4.08,4.93,31.87
94417,0.27,-0.41,0.93,-6.14,7.04,7.62,31.82
94427,0.31,-0.43,0.90,-0.99,16.29,10.92,31.82
94437,0.30,-0.43,0.89,3.40,23.98,9.11,31.92
94447,0.29,-0.42,0.90,0.49,27.91,9.15,31.73
94457,0.27,-0.42,0.91,-3.15,23.80,4.15,31.78
94467,0.23,-0.42,0.95,-8.23,16.96,-0.26,31.92
94477,0.20,-0.41,0.96,-10.87,6.15,-1.86,31.82
94487,0.18,-0.40,0.95,-12.44,-1.18,-1.89,31.78
94497,0.18,-0.38,0.92,-12.52,-5.25,1.83,31.97
94507,0.21,-0.39,0.91,-13.73,-6.43,6.34,31.87
94517,0.25,-0.40,0.89,-14.89,-1.68,9.47,31.87
94527,0.29,-0.43,0.89,-14.99,6.99,10.66,31.78
94537,0.31,-0.48,0.91,-11.82,10.35,9.51,31.78
94547,0.29,-0.47,0.92,-13.79,21.82,5.33,31.87
94557,0.23,-0.46,0.98,-11.05,23.44,2.85,31.82
94567,0.17,-0.45,1.00,-8.23,24.21,2.12,31.82
94577,0.10,-0.40,0.98,-7.76,19.82,1.33,31.82
94587,0.05,-0.36,0.98,-9.07,12.11,2.78,31.82
94597,0.04,-0.37,0.99,-10.67,-0.69,6.20,31.73
94607,0.07,-0.40,0.98,-12.76,-14.34,7.97,31.82
94617,0.15,-0.42,0.94,-14.47,-21.25,8.47,31.87
94627,0.25,-0.46,0.91,-15.33,-17.89,8.58,31.87
94637,0.32,-0.49,0.92,-15.08,-9.83,7.36,31.87
94647,0.34,-0.51,0.93,-14.53,-2.47,5.45,31.87
94657,0.33,-0.51,0.95,-11.76,5.31,3.69,31.87
94667,0.31,-0.50,0.95,-8.18,10.14,3.40,31.78
94677,0.27,-0.49,0.97,-2.66,14.32,4.02,31.87
94687,0.27,-0.46,0.92,-1.01,12.00,6.53,31.82
94697,0.28,-0.44,0.88,-0.66,15.05,10.52,31.82
94707,0.31,-0.40,0.84,-4.72,20.18,12.93,31.73
94717,0.35,-0.40,0.83,-10.03,24.61,13.24,31.92
94727,0.40,-0.42,0.84,-17.40,22.06,8.96,31.82
94737,0.40,-0.45,0.84,-23.59,18.02,2.50,31.82
94747,0.39,-0.45,0.87,-28.37,24.20,-2.64,31.82
94757,0.35,-0.48,0.93,-28.08,26.75,-6.12,31.87
94767,0.27,-0.50,0.99,-24.46,30.75,-7.01,31.87
94777,0.17,-0.50,1.01,-20.47,31.97,-5.25,31.78
94787,0.11,-0.48,1.04,-14.34,32.78,-0.73,31.87
94797,0.03,-0.48,1.09,-8.84,20.26,3.94,31.87
94807,0.02,-0.45,1.07,-8.18,5.24,7.85,31.87
94817,0.03,-0.45,1.05,-9.92,-10.90,11.28,31.78
94827,0.09,-0.45,1.00,-13.88,-20.06,14.06,31.82
94837,0.18,-0.49,0.99,-16.85,-18.53,15.73,31.82
94847,0.28,-0.55,0.99,-19.25,-5.65,13.74,31.82
94857,0.30,-0.59,1.01,-19.10,1.83,7.45,31.82
94867,0.26,-0.59,1.03,-16.95,5.57,0.53,31.82
94877,0.21,-0.57,1.04,-10.64,5.57,-3.47,31.82
94887,0.16,-0.54,1.06,-5.28,5.53,-4.47,31.87
94897,0.11,-0.51,1.01,-1.69,7.69,-1.73,31.87
94907,0.10,-0.47,0.98,-0.44,14.90,4.82,31.78
94917,0.07,-0.47,0.95,-0.41,21.05,11.76,31.78
94927,0.06,-0.47,0.95,-4.70,21.19,15.44,31.87
94937,0.03,-0.47,0.96,-8.11,15.63,16.95,31.87
94947,0.02,-0.48,0.96,-10.12,4.31,18.29,31.87
94957,0.07,-0.50,0.93,-12.60,-4.23,18.12,31.87
94967,0.14,-0.54,0.91,-16.24,-8.89,15.48,31.87
94977,0.22,-0.58,0.89,-18.95,-5.60,12.00,31.82
94987,0.25,-0.61,0.87,-19.71,1.76,8.02,31.82
94997,0.24,-0.63,0.87,-18.82,11.04,5.16,31.82
95007,0.26,-0.66,0.91,-15.45,16.20,1.59,31.73
95017,0.23,-0.67,0.88,-9.74,28.95,-0.26,31.87
95027,0.18,-0.64,0.90,-4.03,32.66,-0.29,31.92
95037,0.16,-0.60,0.89,2.14,35.34,2.11,31.82
95047,0.15,-0.51,0.82,1.42,34.24,4.26,31.87
95057,0.17,-0.50,0.83,-0.06,31.36,7.21,31.87
95067,0.18,-0.45,0.81,-5.50,30.31,5.66,31.97
95077,0.14,-0.50,0.84,-6.18,33.71,5.83,31.78
95087,0.06,-0.52,0.89,-7.69,35.63,6.40,31.87
95097,-0.02,-0.56,0.99,-2.89,37.05,9.40,31.87
95107,-0.05,-0.58,1.05,5.62,34.41,14.12,31.87
95117,-0.06,-0.58,1.06,10.50,30.34,16.31,31.92
95127,-0.06,-0.57,1.07,12.66,22.31,17.85,31.82
95137,-0.07,-0.54,1.06,14.44,13.63,19.97,31.92
95147,-0.08,-0.52,1.04,14.18,4.76,22.21,31.92
95157,-0.06,-0.48,1.00,11.47,-2.99,25.57,31.73
95167,-0.05,-0.47,0.98,8.93,-9.30,29.89,31.73
95177,-0.00,-0.48,0.97,8.87,-10.56,32.47,31.82
95187,0.03,-0.50,0.96,11.95,-9.25,35.88,31.87
95197,0.04,-0.50,0.95,10.50,-6.02,37.22,31.78
95207,0.07,-0.50,0.94,6.63,0.06,35.40,31.87
95217,0.08,-0.49,0.94,1.89,2.98,33.22,31.78
95227,0.09,-0.49,0.93,-6.14,4.34,30.90,31.78
95237,0.10,-0.53,0.95,-11.18,3.10,27.73,31.87
95247,0.11,-0.54,0.94,-12.87,2.41,24.08,31.87
95257,0.13,-0.51,0.94,-15.42,1.83,22.14,31.82
95267,0.15,-0.51,0.92,-18.40,1.97,19.82,31.82
95277,0.14,-0.54,0.91,-21.94,1.40,15.88,31.82
95287,0.14,-0.56,0.92,-20.27,3.24,11.76,31.82
95297,0.13,-0.58,0.91,-15.97,9.07,7.30,31.82
95307,0.07,-0.57,0.94,-14.26,11.01,3.27,31.82
95317,-0.01,-0.56,0.95,-11.77,10.09,1.22,31.78
95327,-0.06,-0.56,0.95,-7.02,7.10,1.18,31.78
95337,-0.06,-0.52,0.93,-5.16,2.96,0.63,31.78
95347,-0.06,-0.48,0.89,-6.55,-2.38,1.31,31.78
95357,-0.04,-0.48,0.87,-7.51,-3.92,3.27,31.87
95367,-0.01,-0.48,0.87,-8.66,-2.75,6.32,31.87
95377,0.02,-0.50,0.88,-10.72,-0.63,7.77,31.87
95387,0.03,-0.52,0.90,-10.85,-0.12,6.79,31.87
95397,0.04,-0.52,0.91,-10.56,-0.63,6.90,31.92
95407,0.05,-0.51,0.92,-12.41,-0.31,6.49,31.82
95417,0.06,-0.54,0.96,-12.63,-1.07,5.57,31.82
95427,0.08,-0.56,0.99,-10.53,0.38,5.04,31.82
95437,0.09,-0.59,1.02,-7.44,1.42,2.05,31.73
95447,0.08,-0.59,1.04,-2.87,-0.66,-1.40,31.87
95457,0.06,-0.56,1.02,0.95,-1.97,-2.69,31.82
95467,0.07,-0.53,0.99,2.96,-0.09,-1.60,31.78
95477,0.08,-0.52,0.98,3.21,2.73,-0.38,31.97
95487,0.08,-0.52,0.97,1.34,4.34,-0.78,31.87
95497,0.08,-0.52,0.98,-0.02,3.21,-2.79,31.97
95507,0.07,-0.51,0.96,-1.94,1.53,-4.32,31.78
95517,0.05,-0.49,0.96,-3.50,-0.75,-4.93,31.87
95527,0.05,-0.49,0.97,-4.34,-0.98,-4.26,31.87
95537,0.03,-0.51,0.98,-4.64,-0.44,-3.77,31.92
95547,0.03,-0.54,0.99,-2.72,0.56,-3.16,31.82
95557,0.02,-0.52,0.99,0.27,0.47,-2.66,31.82
95567,0.02,-0.50,0.96,1.92,0.56,-1.25,31.92
95577,0.02,-0.49,0.95,1.36,1.30,0.21,31.97
95587,0.04,-0.48,0.93,-0.12,2.64,1.63,31.82
95597,0.05,-0.48,0.93,-2.06,4.49,1.77,31.92
95607,0.07,-0.48,0.92,-4.40,4.75,1.37,31.78
95617,0.07,-0.50,0.96,-6.08,2.85,-0.34,31.87
