Timestamp,Acce_X,Acce_Y,Acce_Z,Gyro_X,Gyro_Y,Gyro_Z,Temp
44047,-0.05,-0.24,1.08,-6.53,0.55,-4.72,30.55
44057,-0.08,-0.24,1.06,-4.56,1.76,-4.23,30.46
44067,-0.12,-0.23,1.06,-4.08,-1.31,-3.15,30.55
44077,-0.11,-0.24,1.04,-4.92,0.63,-2.76,30.46
44087,-0.12,-0.25,1.05,-4.63,1.63,-2.43,30.51
44097,-0.10,-0.24,1.03,-4.66,0.87,-2.32,30.51
44107,-0.12,-0.25,1.05,-4.43,-0.26,-3.22,30.51
44117,-0.13,-0.24,1.04,-3.16,-2.87,-3.04,30.60
44127,-0.12,-0.24,1.01,-2.64,-3.77,-3.24,30.51
44137,-0.13,-0.24,1.01,-3.39,-5.11,-4.02,30.46
44147,-0.13,-0.24,1.02,-4.96,-6.02,-4.44,30.46
44157,-0.14,-0.26,1.02,-5.94,-8.95,-4.47,30.55
44167,-0.11,-0.26,1.02,-6.14,-12.96,-5.83,30.46
44177,-0.11,-0.28,1.02,-7.37,-19.48,-8.78,30.55
44187,-0.10,-0.27,1.03,-8.63,-27.85,-12.49,30.55
44197,-0.09,-0.28,1.02,-10.66,-38.43,-15.66,30.51
44207,-0.10,-0.30,0.99,-13.60,-45.11,-18.00,30.51
44217,-0.10,-0.30,0.98,-17.54,-48.29,-18.69,30.60
44227,-0.09,-0.32,0.97,-20.00,-48.26,-17.18,30.51
44237,-0.05,-0.36,0.95,-22.53,-43.16,-14.92,30.46
44247,-0.00,-0.38,0.94,-25.15,-35.18,-12.70,30.55
44257,0.05,-0.41,0.94,-29.92,-25.51,-11.68,30.55
44267,0.10,-0.42,0.94,-37.95,-15.91,-11.19,30.55
44277,0.15,-0.46,0.96,-46.95,-0.15,-10.63,30.55
44287,0.16,-0.51,1.05,-46.69,10.55,-10.15,30.46
44297,0.17,-0.58,1.05,-45.16,24.72,-10.78,30.46
44307,0.14,-0.61,1.06,-43.48,36.99,-12.34,30.60
44317,0.14,-0.66,1.07,-39.60,48.34,-15.62,30.60
44327,0.12,-0.70,1.03,-37.45,56.38,-21.24,30.60
44337,0.05,-0.71,1.01,-37.27,60.20,-23.36,30.60
44347,-0.01,-0.72,1.04,-31.76,57.53,-23.21,30.60
44357,-0.08,-0.68,1.01,-24.47,51.63,-18.40,30.55
44367,-0.08,-0.67,0.99,-14.98,49.50,-9.47,30.55
44377,-0.06,-0.66,0.94,-5.77,51.28,0.31,30.55
44387,-0.02,-0.67,0.93,1.40,61.47,10.56,30.55
44397,-0.03,-0.71,0.96,5.76,69.42,15.60,30.55
44407,-0.01,-0.71,0.93,5.63,77.80,18.34,30.65
44417,0.02,-0.70,0.93,0.32,75.86,12.11,30.51
44427,0.00,-0.68,1.01,-0.63,63.40,0.02,30.60
44437,-0.00,-0.65,0.98,-6.14,47.74,-18.20,30.60
44447,-0.07,-0.60,0.96,-10.46,27.21,-33.02,30.51
44457,-0.13,-0.55,0.98,-18.96,12.15,-41.73,30.46
44467,-0.18,-0.55,0.93,-21.89,-1.66,-45.28,30.55
44477,-0.22,-0.49,0.94,-22.72,-9.15,-37.73,30.55
44487,-0.21,-0.46,0.93,-20.46,-13.44,-27.74,30.55
44497,-0.22,-0.45,0.93,-21.76,-12.34,-19.28,30.46
44507,-0.19,-0.44,0.98,-24.58,-11.77,-12.87,30.46
44517,-0.13,-0.46,1.03,-25.77,-9.24,-10.69,30.51
44527,-0.12,-0.48,1.02,-27.05,0.40,-6.75,30.51
44537,-0.12,-0.44,1.01,-33.02,11.15,-4.60,30.60
44547,-0.15,-0.41,1.00,-38.09,9.47,-5.27,30.51
44557,-0.15,-0.37,0.97,-43.63,9.22,-5.74,30.60
44567,-0.15,-0.36,0.99,-46.85,5.98,-6.99,30.51
44577,-0.14,-0.37,1.01,-48.34,2.69,-7.77,30.55
44587,-0.13,-0.38,1.03,-50.47,-0.37,-10.64,30.55
44597,-0.10,-0.37,1.04,-49.36,4.17,-11.57,30.65
44607,-0.11,-0.38,1.03,-45.08,8.98,-11.94,30.55
44617,-0.12,-0.41,1.02,-37.77,21.36,-6.47,30.55
44627,-0.16,-0.37,1.03,-29.07,28.75,-0.84,30.51
44637,-0.16,-0.30,0.99,-24.99,30.98,3.57,30.60
44647,-0.16,-0.25,0.96,-21.51,33.05,6.17,30.60
44657,-0.12,-0.18,0.95,-22.75,29.30,1.77,30.60
44667,-0.16,-0.17,0.95,-27.53,15.79,-3.91,30.51
44677,-0.12,-0.15,0.98,-30.69,8.06,-10.29,30.55
44687,-0.15,-0.13,1.02,-31.24,-4.73,-15.79,30.55
44697,-0.14,-0.14,1.06,-28.85,-17.74,-23.42,30.55
44707,-0.15,-0.15,1.10,-26.27,-28.32,-31.53,30.55
44717,-0.15,-0.14,1.10,-21.94,-35.07,-36.44,30.55
44727,-0.15,-0.09,1.08,-17.92,-39.79,-39.05,30.65
44737,-0.19,-0.08,1.05,-16.70,-40.27,-37.74,30.51
44747,-0.23,-0.09,1.04,-17.11,-37.01,-29.18,30.60
44757,-0.24,-0.10,1.05,-15.76,-28.00,-16.20,30.51
44767,-0.19,-0.11,1.06,-14.87,-13.34,-4.43,30.55
44777,-0.18,-0.11,1.09,-14.32,-1.25,3.10,30.51
44787,-0.18,-0.15,1.12,-10.84,3.48,8.26,30.55
44797,-0.17,-0.18,1.14,-6.78,1.13,9.48,30.55
44807,-0.13,-0.18,1.12,-4.55,-2.47,6.35,30.55
44817,-0.14,-0.21,1.15,-3.22,-11.76,0.60,30.55
44827,-0.13,-0.23,1.16,1.86,-21.66,-4.15,30.55
44837,-0.07,-0.25,1.15,4.32,-28.69,-12.87,30.51
44847,-0.08,-0.26,1.15,5.73,-32.05,-19.15,30.60
44857,-0.09,-0.27,1.14,11.25,-30.05,-18.78,30.51
44867,-0.10,-0.27,1.13,15.53,-25.36,-14.34,30.51
44877,-0.07,-0.30,1.11,25.66,-6.52,-5.42,30.51
44887,0.01,-0.29,1.06,32.34,24.41,1.28,30.51
44897,0.03,-0.29,1.07,33.28,51.34,-0.96,30.65
44907,-0.02,-0.29,1.12,30.72,62.73,-10.78,30.55
44917,-0.08,-0.31,1.21,32.78,50.61,-25.66,30.55
44927,-0.17,-0.32,1.21,40.03,23.50,-39.36,30.55
44937,-0.21,-0.30,1.12,47.01,1.24,-49.33,30.55
44947,-0.31,-0.28,1.09,49.24,-33.21,-55.21,30.60
44957,-0.18,-0.20,0.89,49.77,-23.79,-47.94,30.51
44967,-0.22,-0.20,0.82,36.85,-23.54,-39.98,30.60
44977,-0.26,-0.18,0.79,24.75,-19.40,-29.66,30.60
44987,-0.31,-0.18,0.82,14.66,-14.79,-16.14,30.46
44997,-0.28,-0.18,0.82,8.66,-12.26,-1.37,30.65
45007,-0.27,-0.23,0.89,0.49,-10.98,11.59,30.55
45017,-0.18,-0.25,0.94,-4.46,-10.05,19.16,30.46
45027,-0.11,-0.29,1.00,-11.68,-12.29,20.95,30.55
45037,-0.07,-0.30,1.09,-12.61,-22.85,19.66,30.55
45047,-0.03,-0.31,1.10,-8.75,-36.78,16.99,30.51
45057,0.01,-0.32,1.10,-3.79,-41.13,17.82,30.51
45067,0.09,-0.29,1.06,0.84,-35.33,19.60,30.60
45077,0.11,-0.29,1.10,0.14,-28.63,19.63,30.60
45087,0.13,-0.28,1.06,2.75,-21.25,18.90,30.51
45097,0.14,-0.28,1.04,4.79,-22.02,13.63,30.51
45107,0.11,-0.27,1.05,8.41,-26.78,8.20,30.46
45117,0.11,-0.27,1.03,10.21,-33.97,-0.40,30.46
45127,0.12,-0.28,1.06,14.35,-43.71,-10.34,30.55
45137,0.07,-0.24,0.99,7.04,-30.82,-16.64,30.55
45147,0.03,-0.23,1.10,8.64,-28.64,-18.31,30.55
45157,-0.02,-0.20,1.07,20.66,-23.95,-12.49,30.65
45167,-0.04,-0.19,1.02,27.27,-13.40,-1.88,30.41
45177,-0.05,-0.20,1.02,33.28,1.31,8.98,30.51
45187,-0.05,-0.20,1.01,34.78,16.38,15.42,30.51
45197,-0.07,-0.23,1.05,33.18,25.89,16.61,30.51
45207,-0.09,-0.24,1.11,34.96,24.95,14.99,30.55
45217,-0.09,-0.24,1.12,41.42,18.96,12.95,30.55
45227,-0.10,-0.25,1.09,46.61,10.89,11.95,30.55
45237,-0.07,-0.22,1.06,52.58,3.18,12.96,30.55
45247,-0.06,-0.21,1.01,55.16,-3.16,15.50,30.65
45257,-0.05,-0.17,0.95,54.50,-5.01,19.57,30.55
45267,-0.05,-0.18,0.96,51.85,0.03,23.33,30.46
45277,-0.03,-0.20,0.98,47.69,-0.52,23.85,30.51
45287,-0.04,-0.20,1.01,41.71,-4.18,21.25,30.51
45297,-0.05,-0.19,1.05,38.52,-10.90,18.24,30.51
45307,-0.06,-0.19,1.04,37.54,-19.66,15.39,30.51
45317,-0.06,-0.16,1.03,35.16,-24.08,14.87,30.51
45327,-0.09,-0.12,1.03,34.89,-25.56,19.05,30.60
45337,-0.10,-0.09,1.01,35.83,-14.69,25.01,30.55
45347,-0.12,-0.09,1.01,34.05,-1.77,31.54,30.55
45357,-0.10,-0.08,1.02,30.81,2.85,33.89,30.55
45367,-0.09,-0.07,1.03,28.53,-3.45,31.65,30.55
45377,-0.05,-0.04,1.01,29.65,-13.48,30.00,30.65
45387,0.00,-0.04,0.96,27.11,-19.66,28.66,30.55
45397,0.04,-0.02,0.90,19.77,-23.30,27.04,30.51
45407,0.08,-0.01,0.85,6.46,-22.58,25.11,30.51
45417,0.12,-0.01,0.84,-11.02,-12.70,21.42,30.60
45427,0.13,-0.02,0.88,-26.60,-3.11,15.74,30.51
45437,0.08,-0.05,0.96,-37.30,3.42,11.53,30.51
45447,0.03,-0.08,1.04,-40.92,1.22,8.06,30.51
45457,0.02,-0.12,1.10,-41.42,-1.44,5.08,30.55
45467,0.01,-0.14,1.14,-37.25,-6.18,2.32,30.55
45477,0.01,-0.16,1.16,-30.70,-5.92,1.21,30.55
45487,0.01,-0.17,1.16,-24.05,-6.24,1.63,30.55
45497,0.01,-0.15,1.11,-19.44,-4.24,3.28,30.55
45507,0.03,-0.15,1.09,-18.89,2.20,4.17,30.55
45517,0.04,-0.15,1.07,-18.95,7.98,5.82,30.60
45527,0.06,-0.17,1.07,-18.44,12.43,5.44,30.60
45537,0.06,-0.18,1.07,-19.22,13.22,2.09,30.60
45547,0.02,-0.18,1.08,-19.31,7.21,-2.67,30.51
45557,0.01,-0.18,1.09,-16.44,1.74,-5.95,30.55
45567,0.00,-0.17,1.06,-14.18,-0.49,-7.69,30.60
45577,-0.01,-0.16,1.03,-13.69,5.59,-7.11,30.46
45587,-0.06,-0.15,1.04,-13.16,9.74,-4.32,30.46
45597,-0.06,-0.16,1.03,-13.21,14.73,-1.88,30.55
45607,-0.06,-0.17,1.05,-12.56,13.57,-0.27,30.55
45617,-0.06,-0.18,1.05,-11.44,11.27,-0.35,30.46
45627,-0.05,-0.17,1.05,-10.53,6.78,-1.37,30.60
45637,0.00,-0.16,1.03,-9.25,4.81,-1.59,30.60
45647,0.02,-0.16,1.01,-9.07,2.46,-2.46,30.51
45657,0.04,-0.16,1.00,-10.69,4.00,-4.21,30.60
45667,0.04,-0.18,1.03,-12.31,4.75,-7.10,30.51
45677,0.03,-0.18,1.04,-12.93,3.37,-9.59,30.51
45687,0.03,-0.20,1.04,-13.11,1.88,-11.85,30.55
45697,0.01,-0.20,1.06,-12.75,-0.38,-13.91,30.46
45707,0.02,-0.20,1.06,-11.65,-1.08,-14.08,30.55
45717,0.01,-0.20,1.03,-11.82,-1.15,-13.92,30.55
45727,-0.02,-0.19,1.01,-14.12,1.22,-11.97,30.55
45737,-0.03,-0.20,1.03,-14.85,2.02,-8.87,30.65
45747,-0.03,-0.22,1.03,-15.62,1.94,-6.73,30.51
45757,-0.03,-0.22,1.03,-17.42,1.16,-5.16,30.60
45767,-0.00,-0.22,1.05,-17.01,-0.08,-4.66,30.60
45777,0.01,-0.23,1.03,-17.42,-0.67,-4.05,30.55
45787,0.02,-0.21,1.01,-20.17,-0.03,-4.20,30.60
45797,0.02,-0.23,1.02,-22.24,-1.45,-4.35,30.51
45807,0.02,-0.23,1.04,-23.13,-3.16,-3.79,30.55
45817,0.04,-0.24,1.05,-23.66,-1.79,-3.04,30.55
45827,0.04,-0.26,1.08,-23.11,0.56,-4.70,30.55
45837,0.03,-0.28,1.09,-21.04,1.08,-5.95,30.46
45847,0.00,-0.28,1.10,-18.98,-0.79,-7.59,30.55
45857,-0.00,-0.28,1.09,-16.66,-2.89,-7.08,30.60
45867,-0.00,-0.27,1.08,-14.06,-1.97,-4.21,30.51
45877,0.00,-0.25,1.05,-12.76,3.69,-0.17,30.60
45887,0.00,-0.25,1.02,-13.24,8.09,3.39,30.60
45897,0.02,-0.25,1.01,-14.50,9.77,5.77,30.51
45907,0.05,-0.28,1.02,-16.34,9.36,4.52,30.55
45917,0.05,-0.29,1.03,-19.27,6.55,1.44,30.55
45927,0.05,-0.28,1.04,-20.55,1.15,-2.14,30.46
45937,0.04,-0.29,1.03,-20.53,-2.26,-4.15,30.46
45947,0.05,-0.29,1.04,-19.86,-1.66,-5.34,30.55
45957,0.05,-0.30,1.06,-19.77,1.05,-7.16,30.55
45967,0.03,-0.31,1.06,-18.66,1.88,-8.50,30.60
45977,-0.00,-0.30,1.07,-14.61,1.21,-7.48,30.60
45987,-0.02,-0.31,1.07,-9.76,2.78,-4.84,30.51
45997,-0.01,-0.31,1.05,-6.89,4.24,-2.87,30.60
46007,-0.02,-0.30,1.03,-6.47,4.17,-1.77,30.60
46017,-0.02,-0.30,1.03,-6.64,4.50,-1.44,30.60
46027,-0.01,-0.28,1.01,-6.87,2.92,-1.25,30.46
46037,0.01,-0.28,0.99,-7.08,2.08,-0.60,30.55
46047,0.03,-0.28,1.00,-8.58,1.54,-0.85,30.55
46057,0.03,-0.28,0.99,-10.09,0.75,-2.09,30.55
46067,0.05,-0.27,0.99,-11.44,0.31,-3.89,30.55
46077,0.03,-0.28,1.01,-11.91,-0.87,-6.02,30.55
46087,0.02,-0.30,1.02,-11.34,-1.65,-6.84,30.60
46097,0.01,-0.29,1.03,-10.20,-3.37,-7.16,30.51
46107,0.00,-0.30,1.03,-9.48,-3.74,-7.25,30.60
46117,0.00,-0.30,1.03,-8.41,-3.68,-6.95,30.51
46127,0.00,-0.30,1.02,-7.77,-3.92,-6.84,30.55
46137,0.00,-0.30,1.02,-7.08,-4.64,-6.38,30.46
46147,0.01,-0.29,1.01,-6.78,-4.34,-5.69,30.55
46157,0.01,-0.29,1.01,-7.25,-3.62,-4.55,30.46
46167,0.00,-0.28,1.01,-8.43,-1.91,-3.56,30.55
46177,-0.00,-0.28,1.02,-9.44,-1.21,-3.27,30.65
46187,0.00,-0.28,1.02,-8.89,-3.08,-3.22,30.65
46197,0.02,-0.29,1.01,-9.13,-4.18,-3.07,30.51
46207,0.02,-0.28,1.02,-9.31,-3.77,-3.31,30.51
46217,0.03,-0.28,1.02,-8.99,-2.44,-3.45,30.51
46227,0.04,-0.28,1.02,-8.84,0.06,-4.15,30.69
46237,0.03,-0.28,1.03,-8.38,-0.06,-5.42,30.51
46247,0.03,-0.29,1.02,-8.81,-1.80,-7.82,30.60
46257,0.02,-0.28,1.02,-9.31,-4.40,-9.79,30.55
46267,0.02,-0.28,1.02,-9.76,-5.44,-10.75,30.55
46277,0.01,-0.27,1.01,-10.06,-3.82,-10.82,30.55
46287,0.00,-0.25,1.01,-9.85,-1.21,-9.56,30.46
46297,-0.00,-0.25,1.00,-9.36,1.74,-7.51,30.65
46307,0.01,-0.23,0.99,-10.14,4.58,-5.44,30.55
46317,0.01,-0.22,0.98,-11.82,6.72,-2.70,30.51
46327,0.04,-0.20,0.98,-13.80,7.60,-1.25,30.51
46337,0.05,-0.19,0.96,-17.34,8.98,-0.47,30.60
46347,0.04,-0.18,0.97,-20.08,7.65,1.18,30.51
46357,-0.02,-0.18,0.98,-23.02,7.89,4.72,30.60
46367,-0.05,-0.18,0.98,-24.63,8.53,11.16,30.60
46377,-0.09,-0.19,0.96,-27.51,12.06,19.91,30.55
46387,-0.16,-0.19,0.96,-30.66,21.80,33.31,30.55
46397,-0.18,-0.20,0.98,-33.79,24.24,44.09,30.55
46407,-0.16,-0.22,0.99,-36.35,20.37,50.53,30.55
46417,-0.12,-0.25,1.03,-39.40,11.16,52.55,30.46
46427,-0.02,-0.29,1.07,-40.73,6.50,49.51,30.55
46437,0.08,-0.30,1.09,-41.22,10.02,41.94,30.51
46447,0.13,-0.30,1.15,-38.31,13.80,31.04,30.60
46457,0.14,-0.31,1.19,-30.02,15.51,21.31,30.51
46467,0.14,-0.32,1.22,-17.40,14.67,12.95,30.60
46477,0.13,-0.31,1.21,-2.43,12.08,5.11,30.55
46487,0.11,-0.31,1.18,9.04,14.38,-2.29,30.51
46497,0.06,-0.29,1.16,16.67,16.34,-8.56,30.55
46507,0.01,-0.27,1.11,19.94,16.67,-14.49,30.46
46517,-0.02,-0.24,1.07,20.79,14.37,-20.24,30.55
46527,-0.07,-0.20,1.03,20.75,10.79,-24.60,30.55
46537,-0.11,-0.17,0.97,19.04,7.71,-27.04,30.46
46547,-0.14,-0.13,0.94,16.11,8.76,-25.98,30.65
46557,-0.18,-0.10,0.92,11.91,11.27,-19.50,30.60
46567,-0.19,-0.09,0.91,5.98,12.44,-10.73,30.60
46577,-0.17,-0.07,0.89,0.18,14.35,-1.97,30.51
46587,-0.16,-0.07,0.88,-8.05,16.26,5.22,30.51
46597,-0.11,-0.10,0.88,-14.95,24.15,10.44,30.60
46607,-0.06,-0.12,0.93,-16.87,30.43,13.53,30.55
46617,0.00,-0.14,0.96,-20.44,38.55,9.44,30.46
46627,-0.00,-0.15,1.01,-20.76,40.41,1.91,30.65
46637,-0.01,-0.15,1.04,-18.31,37.16,-6.31,30.55
46647,-0.04,-0.13,1.02,-17.11,34.40,-14.34,30.46
46657,-0.08,-0.12,1.02,-17.62,29.92,-20.95,30.55
46667,-0.12,-0.14,1.01,-16.92,23.07,-22.44,30.65
46677,-0.14,-0.16,1.03,-14.09,17.34,-20.03,30.51
46687,-0.12,-0.18,1.04,-10.87,17.28,-16.49,30.51
46697,-0.12,-0.20,1.07,-8.43,21.48,-12.35,30.60
46707,-0.13,-0.20,1.08,-5.62,26.60,-7.66,30.51
46717,-0.16,-0.24,1.10,-2.05,29.76,1.39,30.60
46727,-0.14,-0.26,1.11,3.76,34.18,13.98,30.51
46737,-0.10,-0.30,1.13,11.36,40.23,24.34,30.46
46747,-0.07,-0.33,1.16,18.61,46.24,31.02,30.55
46757,-0.06,-0.34,1.17,26.49,53.34,34.78,30.46
46767,-0.05,-0.34,1.17,33.01,56.43,33.63,30.55
46777,-0.05,-0.32,1.18,36.69,55.02,29.42,30.55
46787,-0.16,-0.33,1.23,39.25,47.22,21.86,30.55
46797,-0.09,-0.31,1.15,38.32,31.53,13.13,30.60
46807,-0.11,-0.31,1.12,36.03,17.54,6.09,30.51
46817,-0.12,-0.31,1.10,37.79,11.37,3.88,30.60
46827,-0.10,-0.31,1.09,38.00,10.66,2.82,30.51
46837,-0.11,-0.32,1.09,38.26,14.03,1.16,30.60
46847,-0.14,-0.32,1.13,41.95,18.96,1.51,30.60
46857,-0.16,-0.32,1.15,47.71,13.65,0.56,30.65
46867,-0.16,-0.31,1.14,52.66,4.79,-1.21,30.55
46877,-0.15,-0.30,1.11,55.77,-2.98,-3.36,30.46
46887,-0.16,-0.27,1.07,55.79,-5.65,-1.34,30.55
46897,-0.18,-0.25,1.00,51.27,-6.60,3.80,30.55
46907,-0.18,-0.22,0.93,39.56,-7.25,10.17,30.55
46917,-0.15,-0.22,0.90,25.91,-6.61,14.44,30.51
46927,-0.15,-0.22,0.95,12.87,-8.82,15.42,30.60
46937,-0.13,-0.22,0.97,6.40,-8.69,17.08,30.51
46947,-0.09,-0.25,1.02,2.78,-2.60,17.15,30.51
46957,-0.10,-0.28,1.07,3.56,1.69,17.95,30.65
46967,-0.07,-0.33,1.09,6.50,9.10,20.40,30.60
46977,-0.04,-0.34,1.12,12.64,16.78,24.23,30.46
46987,-0.07,-0.37,1.18,23.18,21.47,27.16,30.55
46997,-0.07,-0.38,1.16,33.56,29.76,30.03,30.65
47007,-0.08,-0.36,1.13,39.22,34.99,29.92,30.55
47017,-0.12,-0.35,1.11,41.01,33.94,30.34,30.55
47027,-0.12,-0.34,1.08,39.57,30.08,31.82,30.55
47037,-0.09,-0.36,1.04,35.16,25.79,29.62,30.51
47047,-0.07,-0.36,1.04,31.21,20.72,25.10,30.51
47057,-0.05,-0.36,1.03,27.98,16.27,16.79,30.60
47067,-0.05,-0.35,1.03,23.85,10.14,7.47,30.60
47077,-0.05,-0.33,1.03,21.18,3.97,-0.02,30.51
47087,-0.07,-0.32,1.01,16.50,-0.72,-6.55,30.46
47097,-0.09,-0.31,1.01,11.13,-5.44,-12.46,30.46
47107,-0.12,-0.30,1.03,6.37,-12.93,-17.57,30.46
47117,-0.14,-0.31,1.03,5.21,-20.46,-19.45,30.46
47127,-0.14,-0.27,0.99,6.82,-15.85,-15.30,30.55
47137,-0.13,-0.25,0.94,5.79,2.61,-7.91,30.55
47147,-0.15,-0.23,0.95,2.12,22.96,-0.72,30.55
47157,-0.20,-0.23,1.01,-0.24,33.10,3.47,30.51
47167,-0.24,-0.25,1.05,-0.99,30.44,4.17,30.51
47177,-0.26,-0.27,1.05,0.66,20.55,3.56,30.51
47187,-0.27,-0.25,1.02,2.55,6.69,1.28,30.60
47197,-0.29,-0.23,1.01,2.85,-6.14,-0.12,30.51
47207,-0.27,-0.19,0.96,1.18,-14.00,-0.49,30.55
47217,-0.26,-0.19,0.93,-0.67,-18.47,-0.84,30.55
47227,-0.27,-0.18,0.94,1.04,-24.20,-0.35,30.55
47237,-0.25,-0.19,0.94,5.15,-25.74,-0.21,30.46
47247,-0.23,-0.19,0.93,6.44,-23.91,-1.28,30.55
47257,-0.23,-0.20,0.94,9.30,-21.65,-1.66,30.55
47267,-0.23,-0.21,0.92,7.85,-9.65,0.87,30.51
47277,-0.25,-0.22,0.91,3.76,2.67,6.17,30.60
47287,-0.24,-0.20,0.89,-1.48,18.53,13.15,30.51
47297,-0.25,-0.20,0.91,-9.63,29.39,19.85,30.51
47307,-0.22,-0.20,0.94,-18.23,31.48,21.40,30.55
47317,-0.21,-0.21,0.98,-24.12,24.89,17.95,30.60
47327,-0.20,-0.22,1.00,-25.44,13.45,12.89,30.46
47337,-0.19,-0.23,1.00,-24.89,4.06,8.53,30.55
47347,-0.19,-0.24,0.99,-23.37,-2.93,5.22,30.55
47357,-0.19,-0.24,0.98,-25.18,-4.29,5.16,30.46
47367,-0.18,-0.23,0.95,-27.56,0.29,9.16,30.55
47377,-0.14,-0.23,0.92,-30.32,10.41,12.55,30.46
47387,-0.12,-0.22,0.92,-32.53,20.31,14.05,30.51
47397,-0.13,-0.23,0.94,-35.15,24.37,12.95,30.51
47407,-0.13,-0.25,0.95,-38.31,20.35,8.38,30.69
47417,-0.16,-0.27,0.97,-42.11,8.21,1.63,30.51
47427,-0.20,-0.26,1.01,-45.10,-9.30,-3.82,30.51
47437,-0.22,-0.26,1.01,-47.57,-23.63,-7.33,30.55
47447,-0.23,-0.27,1.00,-48.09,-31.80,-6.24,30.46
47457,-0.23,-0.27,1.04,-43.57,-34.58,-2.41,30.55
47467,-0.22,-0.28,1.03,-39.63,-30.12,3.07,30.46
47477,-0.21,-0.30,1.05,-37.59,-26.75,6.58,30.65
47487,-0.21,-0.30,1.09,-36.21,-26.18,9.01,30.55
47497,-0.20,-0.33,1.08,-33.73,-29.65,8.55,30.55
47507,-0.21,-0.32,1.09,-31.10,-35.18,6.89,30.55
47517,-0.21,-0.33,1.11,-25.27,-43.13,5.92,30.51
47527,-0.20,-0.33,1.09,-21.89,-50.85,4.35,30.51
47537,-0.20,-0.31,1.11,-16.20,-55.65,5.48,30.51
47547,-0.16,-0.29,1.02,-11.69,-52.78,8.72,30.51
47557,-0.12,-0.29,0.94,-10.95,-37.45,13.10,30.60
47567,-0.12,-0.27,0.92,-14.15,-19.59,18.38,30.55
47577,-0.12,-0.27,0.94,-16.90,-9.42,20.44,30.46
47587,-0.14,-0.26,0.95,-19.22,-8.17,21.15,30.65
47597,-0.13,-0.26,0.96,-19.39,-11.24,20.11,30.46
47607,-0.12,-0.30,0.98,-21.05,-15.34,17.98,30.55
47617,-0.09,-0.31,0.98,-21.60,-11.74,19.86,30.55
47627,-0.15,-0.33,1.05,-26.73,-24.06,17.69,30.55
47637,-0.11,-0.35,1.08,-26.67,-22.27,18.53,30.60
47647,-0.05,-0.36,1.10,-21.59,-23.92,18.75,30.51
47657,0.01,-0.37,1.10,-16.64,-17.30,19.50,30.51
47667,0.03,-0.40,1.12,-13.63,-7.57,18.66,30.60
47677,0.05,-0.41,1.14,-11.37,1.40,18.06,30.51
47687,0.03,-0.41,1.19,-7.92,5.92,14.55,30.51
47697,0.01,-0.41,1.21,-3.53,5.36,9.85,30.55
47707,0.00,-0.38,1.21,2.31,-1.25,3.74,30.55
47717,-0.00,-0.34,1.13,8.50,-4.15,0.31,30.55
47727,0.01,-0.34,1.05,8.67,1.10,-1.77,30.55
47737,-0.04,-0.33,1.06,6.21,3.53,-3.62,30.46
47747,-0.06,-0.34,1.08,4.64,6.99,-4.93,30.46
47757,-0.10,-0.33,1.09,5.36,7.27,-5.77,30.55
47767,-0.13,-0.32,1.08,9.22,5.45,-4.87,30.51
47777,-0.13,-0.30,1.05,10.32,5.48,-3.83,30.51
47787,-0.11,-0.27,1.04,8.50,9.36,-4.87,30.51
47797,-0.13,-0.28,1.03,5.62,8.69,-6.93,30.60
47807,-0.16,-0.27,1.01,2.41,6.40,-8.06,30.60
47817,-0.19,-0.27,1.00,3.07,4.89,-7.71,30.51
47827,-0.19,-0.26,1.00,4.03,2.63,-6.31,30.55
47837,-0.18,-0.26,1.02,5.69,0.00,-5.69,30.65
47847,-0.19,-0.26,1.02,5.24,0.31,-3.80,30.55
47857,-0.17,-0.26,1.01,5.04,1.11,-1.57,30.46
47867,-0.15,-0.26,1.02,4.56,3.73,-2.14,30.55
47877,-0.14,-0.26,1.02,4.53,4.02,-3.33,30.46
47887,-0.17,-0.25,1.00,2.78,4.98,-3.44,30.55
47897,-0.18,-0.25,1.02,1.85,3.59,-2.53,30.51
47907,-0.17,-0.25,1.02,0.49,3.31,-0.41,30.51
47917,-0.15,-0.26,1.01,-0.49,3.40,0.34,30.51
47927,-0.15,-0.25,1.04,-1.74,2.03,-1.04,30.60
47937,-0.15,-0.25,1.04,-0.55,-0.15,-1.94,30.60
47947,-0.16,-0.23,1.04,1.16,-4.69,-3.24,30.60
47957,-0.16,-0.23,0.99,2.55,-4.52,-1.13,30.46
47967,-0.13,-0.22,0.97,0.70,-0.46,1.74,30.46
47977,-0.11,-0.22,0.98,-1.76,5.16,3.92,30.65
47987,-0.10,-0.24,1.02,-1.77,6.70,4.78,30.55
47997,-0.10,-0.25,1.05,0.20,2.69,2.72,30.55
48007,-0.11,-0.24,1.04,3.63,-1.44,1.25,30.55
48017,-0.13,-0.23,1.01,3.22,-2.93,1.68,30.60
48027,-0.12,-0.21,1.01,1.59,-1.89,2.72,30.51
48037,-0.10,-0.21,1.00,-1.50,2.92,3.69,30.51
48047,-0.09,-0.20,1.00,-2.82,6.40,4.14,30.51
48057,-0.08,-0.21,0.98,-4.26,9.02,4.18,30.51
48067,-0.07,-0.20,1.01,-5.10,7.33,2.44,30.51
48077,-0.08,-0.20,1.02,-5.08,5.04,0.31,30.55
48087,-0.10,-0.22,1.03,-5.11,3.34,-0.24,30.46
48097,-0.10,-0.22,1.04,-4.75,5.28,-0.46,30.55
48107,-0.10,-0.22,1.04,-4.90,5.56,-1.59,30.55
48117,-0.13,-0.21,1.03,-3.31,3.97,-1.59,30.55
48127,-0.13,-0.20,1.00,-3.74,2.96,-0.11,30.65
48137,-0.13,-0.20,1.01,-3.91,-1.45,0.49,30.51
48147,-0.11,-0.20,1.01,-3.53,-4.95,1.04,30.51
48157,-0.07,-0.20,0.99,-4.67,-3.66,1.15,30.51
48167,-0.06,-0.20,0.98,-5.69,-0.09,0.44,30.51
48177,-0.08,-0.21,1.01,-5.82,3.19,-0.06,30.55
48187,-0.09,-0.22,1.02,-6.40,4.98,-0.85,30.60
48197,-0.12,-0.22,1.01,-5.25,4.29,-0.32,30.55
48207,-0.11,-0.21,1.01,-4.15,4.89,0.46,30.55
48217,-0.10,-0.21,0.98,-5.39,6.34,0.64,30.55
48227,-0.10,-0.21,0.98,-7.28,6.44,0.43,30.55
48237,-0.10,-0.20,0.98,-9.54,5.65,-0.21,30.55
48247,-0.10,-0.21,0.98,-11.80,3.66,-0.66,30.55
48257,-0.09,-0.21,1.02,-11.42,2.73,-0.82,30.51
48267,-0.09,-0.23,1.02,-10.27,3.48,-1.22,30.51
48277,-0.07,-0.23,1.02,-10.17,4.98,-1.73,30.51
48287,-0.07,-0.23,1.03,-9.21,5.97,-2.27,30.60
48297,-0.08,-0.23,1.02,-10.44,8.81,-2.60,30.51
48307,-0.10,-0.23,1.01,-11.25,9.66,-2.69,30.55
48317,-0.10,-0.24,1.03,-10.40,10.50,-2.09,30.55
48327,-0.11,-0.24,1.03,-9.42,9.28,-2.27,30.65
48337,-0.11,-0.24,1.04,-8.96,8.52,-2.78,30.46
48347,-0.11,-0.23,1.02,-9.31,6.96,-3.68,30.46
48357,-0.11,-0.22,1.02,-9.13,7.88,-4.32,30.46
48367,-0.13,-0.22,1.02,-10.41,7.76,-4.41,30.46
48377,-0.11,-0.22,1.00,-13.18,8.78,-3.66,30.60
48387,-0.13,-0.23,1.00,-13.37,9.44,-3.01,30.60
48397,-0.12,-0.24,1.01,-14.56,9.92,-2.29,30.60
48407,-0.12,-0.24,1.02,-15.77,9.73,-2.08,30.60
48417,-0.12,-0.24,1.03,-16.52,8.05,-3.01,30.60
48427,-0.11,-0.24,1.04,-16.66,7.50,-3.83,30.60
48437,-0.12,-0.26,1.04,-15.89,7.19,-4.53,30.55
48447,-0.12,-0.27,1.05,-13.88,6.24,-5.45,30.55
48457,-0.12,-0.29,1.08,-9.39,3.69,-5.88,30.65
48467,-0.12,-0.27,1.07,-5.60,2.06,-6.52,30.55
48477,-0.12,-0.27,1.05,-2.84,3.91,-6.44,30.55
48487,-0.12,-0.26,1.05,-2.17,6.23,-6.12,30.65
48497,-0.12,-0.27,1.04,-2.35,9.42,-5.27,30.51
48507,-0.12,-0.27,1.04,-3.04,11.83,-4.37,30.51
48517,-0.13,-0.27,1.04,-3.07,12.53,-3.76,30.51
48527,-0.13,-0.26,1.04,-2.31,11.85,-4.00,30.51
48537,-0.12,-0.25,1.02,-2.61,11.71,-5.02,30.51
48547,-0.12,-0.26,1.03,-3.30,12.14,-6.24,30.51
48557,-0.12,-0.26,1.03,-3.39,13.76,-7.01,30.46
48567,-0.13,-0.26,1.04,-2.34,15.73,-7.74,30.55
48577,-0.16,-0.27,1.03,-1.47,16.82,-7.74,30.46
48587,-0.24,-0.26,1.07,-0.64,15.85,-7.94,30.55
48597,-0.21,-0.25,1.02,0.99,11.57,-7.24,30.46
48607,-0.22,-0.23,0.99,1.30,9.66,-5.10,30.55
48617,-0.20,-0.22,0.93,-0.73,10.55,-2.52,30.51
48627,-0.18,-0.21,0.91,-5.39,13.89,-0.49,30.51
48637,-0.16,-0.21,0.90,-9.30,17.65,0.92,30.60
48647,-0.15,-0.23,0.90,-12.90,21.95,1.89,30.51
48657,-0.14,-0.23,0.92,-15.47,24.20,1.76,30.55
48667,-0.16,-0.24,0.93,-16.56,23.33,1.24,30.51
48677,-0.17,-0.24,0.96,-17.54,21.30,0.67,30.65
48687,-0.18,-0.24,0.98,-17.71,18.63,-0.12,30.55
48697,-0.19,-0.26,0.99,-17.25,17.37,0.18,30.65
48707,-0.20,-0.26,1.00,-15.42,18.92,0.90,30.46
48717,-0.21,-0.27,1.02,-14.63,20.60,0.96,30.55
48727,-0.25,-0.28,1.05,-13.40,18.58,0.82,30.55
48737,-0.27,-0.28,1.06,-10.31,14.67,2.21,30.60
48747,-0.28,-0.29,1.04,-8.70,11.21,3.54,30.60
48757,-0.27,-0.28,1.04,-8.12,8.37,4.05,30.51
48767,-0.25,-0.28,1.05,-7.62,4.34,4.20,30.60
48777,-0.24,-0.28,1.04,-7.91,1.25,3.86,30.60
48787,-0.24,-0.28,1.05,-7.60,-0.90,3.45,30.55
48797,-0.24,-0.26,1.04,-7.28,-1.42,3.02,30.55
48807,-0.23,-0.25,1.04,-8.15,-1.16,3.89,30.46
48817,-0.23,-0.27,1.03,-9.88,0.05,4.75,30.55
48827,-0.23,-0.29,1.06,-10.14,1.27,5.69,30.55
48837,-0.23,-0.30,1.09,-8.85,0.50,6.63,30.46
48847,-0.24,-0.30,1.09,-6.60,-1.73,7.68,30.55
48857,-0.22,-0.30,1.10,-3.57,-3.69,8.40,30.46
48867,-0.20,-0.29,1.07,-2.53,-4.92,8.18,30.60
48877,-0.19,-0.28,1.05,-2.67,-4.98,7.77,30.51
48887,-0.17,-0.29,1.04,-3.50,-4.55,7.79,30.60
48897,-0.14,-0.29,1.04,-4.26,-3.28,6.63,30.60
48907,-0.14,-0.30,1.06,-3.91,-3.25,4.98,30.60
48917,-0.15,-0.30,1.04,-2.55,-2.09,3.76,30.55
48927,-0.15,-0.28,1.04,-2.08,-0.70,2.73,30.55
48937,-0.15,-0.28,1.02,-2.52,1.59,2.69,30.65
48947,-0.15,-0.28,1.01,-3.91,2.67,2.00,30.46
48957,-0.17,-0.29,1.02,-3.19,1.91,2.47,30.55
48967,-0.16,-0.29,1.03,-2.26,1.54,2.53,30.46
48977,-0.15,-0.27,1.02,-0.84,0.43,0.64,30.60
48987,-0.17,-0.26,0.98,-2.11,0.46,-0.08,30.60
48997,-0.16,-0.26,0.96,-4.12,2.70,1.34,30.60
49007,-0.16,-0.27,0.99,-5.92,6.31,2.55,30.60
49017,-0.17,-0.28,1.01,-5.95,6.56,3.15,30.60
49027,-0.15,-0.29,1.01,-3.83,4.47,2.72,30.51
49037,-0.12,-0.28,0.99,-1.19,2.85,1.83,30.65
