Timestamp,Acce_X,Acce_Y,Acce_Z,Gyro_X,Gyro_Y,Gyro_Z,Temp
369437,0.08,-0.02,0.89,-3.66,2.92,-4.02,28.53
369447,0.07,-0.03,0.92,-2.38,1.94,-3.67,28.44
369457,0.06,-0.04,0.91,-1.82,2.76,-3.23,28.48
369467,0.06,-0.04,0.93,-1.89,4.08,-2.87,28.48
369477,0.05,-0.04,0.93,-2.17,4.66,-2.37,28.53
369487,0.04,-0.05,0.94,-1.63,4.27,-2.35,28.53
369497,0.04,-0.05,0.92,-1.37,3.10,-1.85,28.48
369507,0.03,-0.06,0.91,-0.32,0.88,-1.63,28.39
369517,0.03,-0.06,0.89,0.08,-0.22,-1.21,28.44
369527,0.04,-0.07,0.88,-1.15,1.21,-0.15,28.44
369537,0.04,-0.07,0.88,-2.54,3.99,0.53,28.44
369547,0.05,-0.08,0.91,-3.69,6.47,1.35,28.48
369557,0.07,-0.09,0.91,-3.67,6.92,1.76,28.48
369567,0.08,-0.09,0.89,-3.79,5.52,1.27,28.44
369577,0.07,-0.09,0.88,-3.98,1.96,0.14,28.34
369587,0.05,-0.10,0.86,-4.59,-3.39,-0.32,28.39
369597,0.05,-0.11,0.85,-6.53,-7.65,0.74,28.48
369607,0.06,-0.12,0.83,-9.19,-10.01,2.79,28.48
369617,0.09,-0.12,0.81,-12.76,-9.66,4.31,28.44
369627,0.13,-0.14,0.83,-16.06,-11.12,5.13,28.44
369637,0.19,-0.18,0.82,-21.27,-11.69,3.76,28.53
369647,0.22,-0.21,0.82,-29.20,-10.59,-0.43,28.48
369657,0.25,-0.24,0.87,-35.60,-9.48,-5.58,28.48
369667,0.21,-0.26,0.95,-37.60,-17.32,-10.29,28.44
369677,0.20,-0.26,1.04,-33.81,-25.08,-14.78,28.34
369687,0.18,-0.28,1.06,-25.72,-30.76,-18.24,28.58
369697,0.17,-0.29,1.05,-15.78,-33.80,-20.44,28.39
369707,0.17,-0.30,1.01,-8.60,-34.06,-19.50,28.48
369717,0.17,-0.31,0.95,-3.79,-28.98,-17.66,28.44
369727,0.20,-0.34,0.94,-0.05,-19.76,-16.38,28.44
369737,0.20,-0.38,0.95,3.36,-11.75,-16.02,28.48
369747,0.19,-0.41,0.97,9.34,-10.93,-16.25,28.58
369757,0.19,-0.43,0.97,15.36,-5.64,-17.05,28.53
369767,0.19,-0.44,0.96,22.61,-3.50,-19.43,28.44
369777,0.19,-0.42,0.93,25.85,0.22,-22.44,28.44
369787,0.23,-0.41,0.84,26.37,5.59,-29.86,28.48
369797,0.25,-0.42,0.74,22.05,15.22,-39.85,28.48
369807,0.22,-0.40,0.68,11.18,28.80,-47.98,28.44
369817,0.18,-0.39,0.71,2.05,46.02,-52.20,28.53
369827,0.13,-0.39,0.76,-6.24,62.51,-53.58,28.34
369837,0.06,-0.39,0.90,-7.23,63.87,-53.37,28.58
369847,0.01,-0.38,0.95,-9.36,53.98,-50.34,28.48
369857,-0.03,-0.39,1.01,-11.89,37.94,-45.84,28.44
369867,-0.05,-0.39,1.05,-10.13,21.58,-39.22,28.53
369877,-0.06,-0.36,1.10,-5.07,7.77,-31.54,28.48
369887,-0.06,-0.33,1.12,1.15,-1.69,-21.98,28.39
369897,-0.03,-0.31,1.11,9.63,-9.24,-14.95,28.48
369907,0.06,-0.29,1.03,11.15,-8.09,-11.77,28.44
369917,0.11,-0.27,0.95,4.82,-6.58,-13.09,28.53
369927,0.15,-0.23,0.92,-4.38,-0.63,-17.08,28.48
369937,0.14,-0.20,0.93,-15.55,6.37,-20.15,28.48
369947,0.10,-0.17,0.93,-28.50,12.11,-19.85,28.58
369957,0.02,-0.16,0.96,-39.67,16.76,-13.82,28.44
369967,0.01,-0.14,0.92,-51.48,19.95,-5.28,28.44
369977,0.03,-0.13,1.00,-53.54,13.79,-0.47,28.39
369987,0.10,-0.11,1.00,-59.36,6.35,0.63,28.39
369997,0.17,-0.12,1.06,-65.09,-1.69,-3.80,28.53
370007,0.20,-0.13,1.05,-63.46,-12.49,-12.74,28.44
370017,0.19,-0.11,1.03,-61.08,-14.18,-18.90,28.53
370027,0.19,-0.09,0.99,-56.82,-10.05,-22.77,28.53
370037,0.16,-0.08,0.95,-52.11,1.50,-24.31,28.48
370047,0.12,-0.04,0.93,-49.85,12.22,-22.82,28.53
370057,0.08,-0.01,0.89,-50.70,21.40,-21.40,28.44
370067,-0.01,-0.03,0.97,-45.50,17.63,-14.26,28.34
370077,-0.05,-0.01,1.00,-34.21,4.37,-3.90,28.48
370087,0.01,-0.03,0.95,-23.17,-4.13,3.53,28.48
370097,0.11,-0.03,0.90,-16.83,-9.28,5.34,28.62
370107,0.20,-0.01,0.88,-12.51,-5.80,0.47,28.53
370117,0.21,-0.02,0.84,-13.94,-3.56,-7.31,28.48
370127,0.19,-0.01,0.83,-20.59,-5.13,-15.02,28.39
370137,0.14,-0.03,0.85,-27.52,-20.02,-20.83,28.39
370147,0.13,-0.03,0.85,-34.82,-40.95,-23.65,28.44
370157,0.16,-0.07,0.82,-41.02,-60.60,-28.39,28.44
370167,0.20,-0.07,0.78,-44.47,-74.66,-33.14,28.48
370177,0.24,-0.06,0.73,-47.11,-82.60,-40.53,28.48
370187,0.22,-0.06,0.73,-49.32,-84.79,-43.15,28.48
370197,0.21,-0.02,0.75,-46.88,-81.18,-43.15,28.53
370207,0.18,-0.02,0.77,-39.15,-65.06,-40.28,28.53
370217,0.20,-0.00,0.81,-29.57,-42.42,-37.19,28.53
370227,0.22,-0.02,0.83,-18.98,-21.33,-35.73,28.48
370237,0.16,-0.03,0.88,-13.56,-18.66,-35.02,28.48
370247,0.25,-0.01,0.82,-6.86,-3.21,-37.08,28.44
370257,0.14,0.01,0.90,-6.71,-12.21,-42.09,28.53
370267,0.13,0.01,0.83,-1.24,-18.89,-45.21,28.39
370277,0.07,-0.04,0.88,-4.91,-27.96,-49.40,28.58
370287,0.01,-0.07,0.87,-9.21,-50.53,-44.86,28.44
370297,0.00,-0.08,0.85,-20.16,-60.90,-37.05,28.44
370307,0.04,-0.09,0.91,-26.98,-58.73,-29.64,28.53
370317,0.05,-0.09,0.95,-25.64,-51.59,-19.13,28.39
370327,0.07,-0.09,0.95,-22.58,-43.10,-9.68,28.39
370337,0.13,-0.10,0.95,-17.80,-34.13,-1.90,28.53
370347,0.17,-0.14,0.95,-9.77,-29.98,3.58,28.44
370357,0.18,-0.17,0.92,-3.60,-27.59,8.96,28.44
370367,0.17,-0.17,0.98,6.08,-32.60,16.33,28.58
370377,0.17,-0.15,1.01,19.68,-36.36,26.44,28.58
370387,0.22,-0.17,0.98,34.29,-34.04,33.62,28.44
370397,0.26,-0.18,0.94,45.40,-22.02,37.60,28.34
370407,0.29,-0.19,0.92,50.30,-13.36,36.82,28.44
370417,0.29,-0.18,0.90,50.21,-11.56,34.83,28.48
370427,0.28,-0.17,0.87,46.03,-20.56,30.17,28.48
370437,0.29,-0.16,0.90,43.65,-29.82,26.80,28.44
370447,0.26,-0.14,0.90,45.56,-55.44,24.45,28.44
370457,0.26,-0.15,0.82,49.23,-68.94,25.21,28.48
370467,0.30,-0.16,0.72,51.53,-66.66,25.69,28.48
370477,0.33,-0.14,0.70,50.08,-49.50,29.13,28.44
370487,0.33,-0.15,0.70,44.59,-36.28,31.34,28.44
370497,0.35,-0.16,0.71,35.65,-27.98,32.12,28.44
370507,0.38,-0.17,0.70,27.24,-29.07,31.50,28.39
370517,0.42,-0.18,0.71,21.42,-34.87,27.17,28.39
370527,0.44,-0.18,0.71,15.63,-43.97,21.18,28.53
370537,0.44,-0.16,0.73,9.17,-53.66,14.73,28.53
370547,0.44,-0.14,0.76,6.61,-58.46,10.21,28.48
370557,0.42,-0.11,0.78,6.31,-59.07,10.56,28.58
370567,0.41,-0.09,0.78,10.84,-53.89,11.51,28.39
370577,0.43,-0.09,0.77,17.04,-36.50,10.85,28.53
370587,0.42,-0.08,0.79,21.12,-25.63,9.93,28.53
370597,0.41,-0.09,0.82,21.89,-15.76,9.19,28.44
370607,0.38,-0.07,0.82,26.95,-18.02,10.64,28.39
370617,0.37,-0.07,0.81,30.31,-20.38,14.05,28.53
370627,0.38,-0.07,0.79,34.01,-19.10,15.78,28.44
370637,0.38,-0.07,0.79,34.31,-11.99,18.12,28.48
370647,0.38,-0.06,0.82,34.01,-7.46,19.68,28.48
370657,0.36,-0.04,0.82,34.71,-3.94,22.37,28.48
370667,0.35,-0.04,0.82,34.90,-0.71,25.37,28.53
370677,0.30,-0.03,0.83,38.23,-0.38,31.06,28.44
370687,0.27,-0.02,0.84,42.47,-0.34,40.05,28.48
370697,0.27,-0.02,0.84,48.04,3.14,50.04,28.39
370707,0.25,-0.03,0.84,53.03,10.85,60.95,28.44
370717,0.31,-0.05,0.81,54.99,22.04,68.04,28.44
370727,0.35,-0.09,0.81,51.89,33.09,70.17,28.53
370737,0.38,-0.10,0.83,47.18,33.42,68.86,28.48
370747,0.39,-0.11,0.86,41.92,25.56,66.50,28.48
370757,0.39,-0.11,0.86,38.08,15.25,63.24,28.53
370767,0.38,-0.10,0.85,35.51,5.40,61.26,28.53
370777,0.37,-0.09,0.84,33.91,0.81,61.40,28.44
370787,0.38,-0.08,0.85,33.09,0.11,61.05,28.48
370797,0.40,-0.07,0.83,32.44,3.69,58.76,28.48
370807,0.42,-0.07,0.83,31.85,8.58,54.30,28.53
370817,0.43,-0.08,0.83,30.63,11.31,49.76,28.53
370827,0.41,-0.08,0.84,30.47,8.35,46.34,28.39
370837,0.39,-0.08,0.83,29.41,3.16,44.00,28.48
370847,0.40,-0.08,0.81,28.41,-0.72,40.50,28.34
370857,0.41,-0.06,0.80,25.22,1.20,36.04,28.44
370867,0.41,-0.05,0.81,21.20,2.34,31.69,28.53
370877,0.39,-0.04,0.83,18.37,0.92,27.66,28.48
370887,0.38,-0.04,0.84,17.87,-1.54,25.03,28.48
370897,0.37,-0.04,0.84,19.10,-3.28,22.41,28.44
370907,0.38,-0.04,0.84,18.88,-1.82,19.92,28.44
370917,0.38,-0.04,0.84,17.91,-0.75,16.61,28.48
370927,0.37,-0.04,0.83,14.34,1.53,12.48,28.39
370937,0.36,-0.03,0.84,10.79,0.61,9.15,28.48
370947,0.35,-0.02,0.86,8.43,-2.67,6.18,28.44
370957,0.33,-0.02,0.86,7.88,-6.69,4.79,28.44
370967,0.32,-0.01,0.86,8.63,-8.19,4.58,28.34
370977,0.31,-0.01,0.87,10.15,-7.15,5.61,28.48
370987,0.29,0.00,0.90,12.44,-5.15,8.62,28.48
370997,0.28,-0.00,0.92,16.05,-3.30,12.75,28.34
371007,0.30,-0.01,0.89,18.98,0.90,15.72,28.53
371017,0.33,-0.00,0.88,21.24,4.91,15.90,28.39
371027,0.35,-0.01,0.88,22.60,6.80,15.53,28.48
371037,0.34,-0.00,0.87,22.56,5.35,15.60,28.39
371047,0.34,-0.00,0.85,21.62,3.87,14.89,28.44
371057,0.35,-0.00,0.82,19.79,2.92,12.80,28.44
371067,0.35,-0.01,0.80,15.72,2.62,10.79,28.48
371077,0.34,0.00,0.81,11.16,0.26,8.82,28.48
371087,0.35,0.01,0.82,6.87,-4.79,6.39,28.53
371097,0.35,0.03,0.83,3.46,-6.46,3.37,28.44
371107,0.34,0.03,0.82,0.61,-8.10,0.60,28.34
371117,0.34,0.03,0.83,-2.71,-8.85,-1.09,28.39
371127,0.34,0.02,0.83,-3.89,-9.66,-1.54,28.39
371137,0.34,0.01,0.84,-4.23,-8.51,-1.24,28.44
371147,0.35,0.00,0.84,-3.83,-5.85,-0.96,28.44
371157,0.35,-0.01,0.86,-2.44,-2.87,-1.02,28.44
371167,0.37,-0.00,0.84,-1.96,0.47,-2.40,28.39
371177,0.37,-0.02,0.84,-2.88,2.24,-4.86,28.39
371187,0.37,-0.01,0.84,-5.34,0.71,-7.68,28.53
371197,0.36,-0.02,0.86,-6.47,-3.81,-9.60,28.44
371207,0.34,-0.02,0.85,-7.03,-7.47,-10.66,28.48
371217,0.33,-0.02,0.85,-7.18,-9.76,-10.24,28.48
371227,0.34,-0.02,0.86,-5.63,-7.37,-10.05,28.48
371237,0.35,-0.01,0.84,-5.34,-1.36,-9.86,28.44
371247,0.34,-0.01,0.85,-6.71,3.56,-9.69,28.44
371257,0.34,-0.02,0.85,-8.47,5.72,-10.73,28.39
371267,0.35,-0.02,0.86,-10.34,4.68,-13.10,28.48
371277,0.34,-0.01,0.87,-12.44,0.44,-15.47,28.39
371287,0.33,-0.02,0.87,-13.44,-6.08,-16.66,28.53
371297,0.33,-0.02,0.86,-13.72,-9.56,-17.73,28.44
371307,0.35,-0.04,0.85,-14.86,-8.37,-19.99,28.48
371317,0.37,-0.07,0.85,-17.37,-5.08,-24.25,28.48
371327,0.37,-0.08,0.87,-20.92,-4.48,-30.12,28.53
371337,0.38,-0.08,0.88,-25.76,-8.87,-37.21,28.44
371347,0.39,-0.07,0.89,-29.10,-16.89,-44.63,28.53
371357,0.38,-0.06,0.91,-29.92,-27.60,-51.37,28.44
371367,0.37,-0.03,0.89,-28.08,-35.48,-57.75,28.39
371377,0.35,-0.02,0.88,-24.65,-41.88,-61.12,28.44
371387,0.33,-0.01,0.84,-21.00,-46.37,-61.52,28.34
371397,0.33,-0.00,0.80,-18.27,-46.23,-59.15,28.53
371407,0.34,-0.02,0.74,-15.51,-39.27,-54.56,28.48
371417,0.35,-0.02,0.72,-16.99,-30.40,-50.65,28.39
371427,0.37,-0.02,0.70,-18.27,-22.17,-45.65,28.44
371437,0.38,-0.01,0.71,-22.09,-15.93,-41.07,28.34
371447,0.39,-0.01,0.73,-24.09,-14.05,-36.53,28.39
371457,0.41,-0.03,0.72,-23.27,-13.40,-32.49,28.39
371467,0.44,-0.02,0.72,-23.56,-9.09,-29.40,28.39
371477,0.48,-0.05,0.72,-24.88,-2.43,-28.36,28.44
371487,0.50,-0.06,0.75,-27.56,2.16,-29.09,28.44
371497,0.50,-0.08,0.77,-30.79,3.88,-29.94,28.48
371507,0.50,-0.09,0.78,-34.17,2.69,-31.15,28.48
371517,0.50,-0.10,0.79,-36.35,0.44,-32.15,28.44
371527,0.50,-0.09,0.80,-36.55,0.57,-32.96,28.53
371537,0.49,-0.09,0.82,-35.74,2.14,-33.76,28.34
371547,0.49,-0.10,0.82,-35.23,6.31,-33.79,28.34
371557,0.50,-0.11,0.81,-33.88,10.54,-34.56,28.48
371567,0.51,-0.12,0.83,-32.16,12.92,-35.98,28.44
371577,0.50,-0.12,0.83,-30.16,12.63,-37.76,28.34
371587,0.49,-0.12,0.84,-27.55,11.24,-38.70,28.48
371597,0.47,-0.12,0.84,-25.02,7.88,-38.47,28.48
371607,0.46,-0.11,0.83,-21.79,4.56,-36.89,28.48
371617,0.44,-0.13,0.84,-17.65,1.79,-33.77,28.44
371627,0.44,-0.14,0.81,-13.47,1.73,-31.08,28.53
371637,0.45,-0.15,0.80,-10.05,5.13,-28.96,28.48
371647,0.49,-0.16,0.75,-10.37,13.11,-29.39,28.48
371657,0.51,-0.17,0.75,-12.15,21.29,-33.30,28.44
371667,0.50,-0.17,0.76,-16.23,23.60,-36.38,28.44
371677,0.46,-0.17,0.79,-18.78,16.89,-38.02,28.44
371687,0.44,-0.17,0.81,-18.96,7.85,-37.54,28.39
371697,0.42,-0.17,0.82,-15.72,2.41,-36.42,28.48
371707,0.42,-0.17,0.82,-10.73,0.17,-33.31,28.53
371717,0.42,-0.17,0.80,-6.73,5.47,-30.84,28.44
371727,0.42,-0.17,0.81,-3.15,16.24,-28.09,28.34
371737,0.41,-0.16,0.81,0.42,25.17,-25.79,28.39
371747,0.41,-0.15,0.83,3.27,30.02,-23.02,28.48
371757,0.42,-0.14,0.84,7.70,32.15,-22.09,28.44
371767,0.43,-0.14,0.82,11.52,32.55,-21.67,28.44
371777,0.42,-0.14,0.84,14.37,31.25,-20.68,28.48
371787,0.42,-0.14,0.85,17.62,28.63,-19.93,28.48
371797,0.41,-0.13,0.83,20.11,26.30,-18.76,28.44
371807,0.42,-0.12,0.82,21.79,24.76,-18.25,28.44
371817,0.43,-0.12,0.80,23.08,27.53,-18.33,28.53
371827,0.42,-0.11,0.80,25.76,29.70,-18.91,28.39
371837,0.40,-0.09,0.79,26.63,29.24,-19.24,28.48
371847,0.38,-0.09,0.80,26.05,26.50,-18.40,28.53
371857,0.39,-0.08,0.79,25.23,23.65,-17.91,28.44
371867,0.39,-0.06,0.80,22.91,20.51,-17.24,28.39
371877,0.39,-0.07,0.82,21.19,18.73,-16.92,28.48
371887,0.39,-0.07,0.81,21.27,17.79,-16.80,28.34
371897,0.39,-0.08,0.81,21.02,20.60,-17.03,28.44
371907,0.36,-0.07,0.81,19.76,20.76,-15.64,28.44
371917,0.35,-0.06,0.81,18.62,19.34,-13.72,28.44
371927,0.35,-0.06,0.83,17.18,19.13,-13.08,28.39
371937,0.38,-0.06,0.84,15.94,16.73,-14.37,28.44
371947,0.38,-0.05,0.83,13.58,13.25,-16.35,28.34
371957,0.38,-0.04,0.83,9.50,8.02,-18.54,28.44
371967,0.37,-0.02,0.84,5.83,1.82,-19.52,28.48
371977,0.35,-0.03,0.85,4.42,-2.05,-18.75,28.39
371987,0.34,-0.02,0.85,4.64,-3.17,-16.11,28.44
371997,0.33,-0.01,0.84,4.73,-0.47,-13.67,28.44
372007,0.33,-0.02,0.84,5.16,4.75,-11.39,28.48
372017,0.32,-0.01,0.85,6.51,8.38,-8.82,28.58
372027,0.32,-0.01,0.87,9.23,6.33,-6.56,28.39
372037,0.32,-0.03,0.86,11.19,4.19,-3.52,28.53
372047,0.33,-0.04,0.86,14.79,3.66,-0.96,28.44
372057,0.34,-0.03,0.84,17.64,6.90,1.86,28.48
372067,0.35,-0.04,0.83,15.47,14.05,3.44,28.48
372077,0.36,-0.03,0.84,11.18,18.31,3.10,28.44
372087,0.36,-0.04,0.86,6.44,17.85,0.73,28.44
372097,0.34,-0.01,0.87,0.96,11.53,-3.39,28.44
372107,0.30,-0.00,0.90,-2.15,2.27,-6.25,28.48
372117,0.25,0.01,0.94,-1.70,-9.40,-6.91,28.39
372127,0.19,-0.00,0.96,3.60,-17.56,-3.57,28.44
372137,0.16,-0.02,0.97,11.12,-16.63,3.98,28.44
372147,0.16,-0.04,0.97,20.95,-8.73,14.34,28.58
372157,0.21,-0.07,0.93,30.89,7.92,24.74,28.48
372167,0.25,-0.10,0.92,37.66,26.44,32.04,28.39
372177,0.30,-0.13,0.91,41.02,40.61,36.48,28.34
372187,0.33,-0.15,0.93,42.09,44.98,36.95,28.44
372197,0.36,-0.17,0.92,41.60,38.42,34.36,28.48
372207,0.38,-0.19,0.91,38.70,23.79,28.94,28.48
372217,0.39,-0.19,0.89,33.71,6.95,22.37,28.44
372227,0.38,-0.18,0.85,27.89,-7.35,16.03,28.53
372237,0.37,-0.16,0.82,22.60,-15.02,12.34,28.39
372247,0.35,-0.14,0.79,15.93,-14.79,10.71,28.39
372257,0.32,-0.12,0.80,10.08,-11.88,12.08,28.48
372267,0.30,-0.09,0.80,6.64,-2.28,16.79,28.34
372277,0.29,-0.09,0.83,7.95,12.48,23.03,28.53
372287,0.29,-0.08,0.87,13.78,27.49,28.21,28.34
372297,0.30,-0.07,0.89,20.82,39.50,31.02,28.48
372307,0.32,-0.07,0.92,25.34,42.56,31.51,28.44
372317,0.31,-0.07,0.92,28.05,37.21,30.11,28.44
372327,0.31,-0.06,0.91,30.56,27.27,28.07,28.44
372337,0.31,-0.05,0.89,31.73,20.69,26.19,28.39
372347,0.30,-0.03,0.86,32.00,18.51,24.65,28.48
372357,0.30,-0.01,0.83,30.79,22.96,24.03,28.34
372367,0.31,0.00,0.82,28.29,29.72,22.66,28.44
372377,0.31,0.01,0.82,24.48,36.25,20.26,28.39
372387,0.29,0.02,0.83,20.73,36.56,17.45,28.39
372397,0.28,0.03,0.84,17.21,30.84,14.15,28.53
372407,0.26,0.05,0.85,14.19,20.60,10.68,28.44
372417,0.23,0.07,0.87,13.27,8.05,8.32,28.53
372427,0.20,0.07,0.87,14.76,-2.33,7.56,28.39
372437,0.20,0.07,0.83,15.60,-0.75,7.40,28.48
372447,0.21,0.06,0.81,13.56,8.16,7.28,28.44
372457,0.22,0.05,0.82,7.64,14.70,5.48,28.44
372467,0.21,0.04,0.83,-0.79,13.11,3.98,28.44
372477,0.19,0.02,0.85,-7.46,1.83,3.65,28.48
372487,0.21,-0.00,0.84,-10.13,-8.77,4.33,28.48
372497,0.22,-0.02,0.85,-7.73,-15.03,6.05,28.44
372507,0.26,-0.03,0.84,-2.37,-10.57,7.27,28.44
372517,0.28,-0.04,0.83,0.27,2.39,7.43,28.48
372527,0.29,-0.04,0.85,1.09,13.61,6.58,28.48
372537,0.29,-0.05,0.85,0.05,19.98,5.72,28.48
372547,0.29,-0.05,0.87,-1.18,20.35,4.04,28.34
372557,0.29,-0.05,0.87,-1.61,16.12,1.96,28.53
372567,0.27,-0.05,0.86,-1.27,7.39,-0.04,28.48
372577,0.24,-0.05,0.84,2.39,3.24,-0.16,28.39
372587,0.25,-0.05,0.81,6.40,12.89,1.11,28.44
372597,0.22,-0.05,0.81,10.73,30.37,3.92,28.34
372607,0.19,-0.05,0.83,12.18,45.85,8.70,28.48
372617,0.19,-0.04,0.86,13.05,52.92,12.61,28.48
372627,0.20,-0.04,0.87,11.74,54.87,14.14,28.39
372637,0.19,-0.06,0.86,12.93,48.76,14.22,28.44
372647,0.18,-0.07,0.87,13.69,38.17,14.02,28.44
372657,0.18,-0.07,0.84,13.27,27.49,14.30,28.53
372667,0.19,-0.08,0.82,12.26,23.13,14.95,28.48
372677,0.20,-0.08,0.81,9.93,25.84,15.59,28.48
372687,0.23,-0.10,0.80,5.40,38.15,13.20,28.53
372697,0.21,-0.09,0.85,0.92,49.83,9.58,28.44
372707,0.17,-0.09,0.92,-2.48,55.18,6.16,28.39
372717,0.15,-0.09,0.95,-2.40,49.07,3.41,28.48
372727,0.11,-0.10,0.97,-0.07,36.87,0.51,28.44
372737,0.08,-0.09,0.98,3.28,22.58,0.14,28.44
372747,0.07,-0.09,0.97,5.74,11.55,0.56,28.44
372757,0.07,-0.08,0.96,6.21,6.73,2.30,28.48
372767,0.07,-0.09,0.96,6.42,4.18,5.14,28.48
372777,0.07,-0.08,0.93,5.04,3.91,7.31,28.44
372787,0.07,-0.08,0.93,3.34,4.29,8.69,28.44
372797,0.07,-0.09,0.93,0.50,2.44,9.24,28.48
372807,0.07,-0.07,0.95,-1.71,-7.21,8.39,28.39
372817,0.06,-0.07,0.94,-5.69,-20.72,8.01,28.39
372827,0.05,-0.09,0.94,-10.47,-38.98,7.67,28.44
372837,0.04,-0.09,0.92,-16.59,-62.50,6.79,28.44
372847,0.03,-0.10,0.90,-23.10,-84.46,9.73,28.44
372857,0.04,-0.10,0.88,-25.34,-99.20,14.39,28.39
372867,0.08,-0.10,0.86,-22.92,-94.26,19.96,28.39
372877,0.10,-0.10,0.86,-16.65,-75.64,27.15,28.44
372887,0.15,-0.10,0.84,-12.78,-49.80,34.02,28.44
372897,0.18,-0.10,0.85,-11.16,-21.09,39.93,28.48
372907,0.24,-0.12,0.88,-9.73,-3.70,40.66,28.48
372917,0.26,-0.12,0.91,-9.69,2.79,37.40,28.53
372927,0.26,-0.13,0.92,-10.94,-4.33,31.08,28.44
372937,0.26,-0.13,0.91,-11.37,-17.73,25.02,28.44
372947,0.26,-0.13,0.92,-10.53,-30.60,18.94,28.39
372957,0.24,-0.12,0.93,-7.65,-37.45,13.60,28.48
372967,0.21,-0.09,0.91,-6.18,-35.50,11.17,28.44
372977,0.20,-0.09,0.89,-5.21,-26.53,11.50,28.44
372987,0.19,-0.08,0.89,-3.37,-12.24,13.48,28.44
372997,0.18,-0.09,0.90,-0.37,-0.21,16.66,28.48
373007,0.19,-0.10,0.91,4.26,9.69,18.95,28.39
373017,0.20,-0.08,0.94,8.37,13.74,19.58,28.44
373027,0.26,-0.10,0.91,11.57,16.28,17.77,28.34
373037,0.26,-0.09,0.93,13.15,16.68,13.53,28.44
373047,0.25,-0.09,0.91,14.15,14.86,9.13,28.39
373057,0.22,-0.09,0.91,13.41,12.79,6.08,28.48
373067,0.21,-0.09,0.90,11.15,13.00,3.79,28.44
373077,0.20,-0.07,0.92,10.69,16.62,2.56,28.44
373087,0.19,-0.07,0.93,11.23,20.18,2.18,28.48
373097,0.16,-0.06,0.93,11.97,25.82,3.95,28.39
373107,0.16,-0.07,0.95,15.56,30.17,6.14,28.44
373117,0.15,-0.07,0.99,21.56,30.08,8.22,28.44
373127,0.15,-0.07,0.97,25.23,28.95,10.88,28.44
373137,0.16,-0.07,0.92,26.87,30.09,13.09,28.48
373147,0.17,-0.06,0.89,25.95,33.16,14.50,28.39
373157,0.17,-0.06,0.88,22.13,36.10,15.38,28.44
373167,0.18,-0.05,0.90,17.73,35.09,15.31,28.53
373177,0.18,-0.06,0.91,13.98,33.73,14.05,28.48
373187,0.16,-0.05,0.95,11.32,26.99,12.98,28.48
373197,0.14,-0.05,0.97,12.34,18.88,13.10,28.39
373207,0.15,-0.06,0.95,15.88,12.05,13.02,28.44
373217,0.16,-0.05,0.93,21.59,13.40,14.66,28.44
373227,0.14,-0.04,0.96,22.02,18.69,16.93,28.44
373237,0.15,-0.07,0.96,27.56,10.90,15.95,28.48
373247,0.16,-0.07,0.91,28.27,8.87,18.35,28.44
373257,0.19,-0.07,0.89,26.81,14.63,17.51,28.44
373267,0.19,-0.06,0.92,23.93,16.95,16.18,28.44
373277,0.18,-0.06,0.94,19.72,9.46,14.05,28.48
373287,0.17,-0.07,0.94,15.52,-1.76,12.17,28.48
373297,0.18,-0.08,0.94,15.34,-14.89,9.97,28.44
373307,0.19,-0.09,0.93,15.15,-27.68,6.78,28.53
373317,0.21,-0.09,0.95,14.45,-44.05,2.56,28.48
373327,0.22,-0.08,0.93,13.54,-57.31,-0.35,28.39
373337,0.25,-0.06,0.89,14.26,-65.34,-2.50,28.39
373347,0.28,-0.05,0.81,16.51,-62.84,-4.62,28.44
373357,0.29,-0.03,0.76,17.28,-50.21,-6.13,28.44
373367,0.30,-0.02,0.75,17.07,-33.28,-7.51,28.39
373377,0.27,-0.00,0.74,14.29,-19.23,-7.91,28.29
373387,0.25,0.01,0.77,9.50,-9.78,-7.37,28.53
373397,0.23,0.02,0.79,5.23,-4.54,-5.67,28.44
373407,0.22,0.02,0.79,2.12,-4.59,-3.47,28.34
373417,0.22,0.02,0.79,-1.07,-3.47,-1.92,28.44
373427,0.23,0.02,0.78,-4.76,-0.10,0.34,28.48
373437,0.25,0.01,0.79,-9.64,4.92,0.92,28.44
373447,0.25,0.00,0.80,-14.73,11.66,0.75,28.44
373457,0.23,0.00,0.83,-19.26,14.57,0.18,28.44
373467,0.21,0.00,0.84,-21.79,15.68,-0.41,28.39
373477,0.17,0.00,0.86,-20.47,16.09,0.21,28.48
373487,0.15,-0.00,0.87,-17.67,14.73,1.31,28.44
373497,0.14,-0.01,0.87,-14.75,12.71,4.34,28.53
373507,0.16,-0.02,0.86,-14.25,11.66,5.60,28.44
373517,0.17,-0.02,0.85,-15.48,12.96,5.94,28.48
373527,0.17,-0.02,0.89,-14.79,10.65,4.67,28.48
373537,0.19,-0.04,0.90,-12.51,10.47,3.96,28.34
373547,0.19,-0.05,0.89,-11.06,7.61,2.31,28.34
373557,0.18,-0.05,0.90,-9.58,4.93,1.12,28.48
373567,0.17,-0.05,0.91,-8.66,3.10,1.49,28.39
373577,0.17,-0.05,0.91,-8.89,3.41,1.82,28.48
373587,0.18,-0.05,0.91,-7.58,7.09,0.96,28.44
373597,0.16,-0.06,0.92,-6.27,12.08,0.66,28.44
373607,0.15,-0.06,0.93,-3.83,12.15,-0.92,28.44
373617,0.15,-0.05,0.94,0.42,12.47,-2.21,28.48
373627,0.12,-0.05,0.93,3.01,9.86,-2.11,28.34
373637,0.12,-0.04,0.91,4.29,4.57,-2.50,28.44
373647,0.12,-0.03,0.89,2.71,2.05,-2.85,28.44
373657,0.11,-0.03,0.88,0.53,-1.31,-2.66,28.48
373667,0.10,-0.03,0.89,-1.50,-3.86,-1.88,28.39
373677,0.10,-0.03,0.89,-2.07,-5.14,-1.03,28.53
373687,0.09,-0.04,0.89,-1.36,-6.45,-0.60,28.53
373697,0.08,-0.04,0.90,-1.44,-8.69,1.23,28.48
373707,0.10,-0.04,0.88,-1.40,-10.02,1.69,28.39
373717,0.11,-0.05,0.88,-0.95,-7.83,2.37,28.39
373727,0.11,-0.05,0.86,-0.63,-4.71,4.73,28.44
373737,0.13,-0.05,0.85,-0.33,-1.22,7.66,28.53
373747,0.17,-0.06,0.85,-1.62,3.58,10.58,28.48
373757,0.21,-0.07,0.86,-4.95,4.21,10.74,28.48
373767,0.24,-0.07,0.86,-8.53,2.73,8.08,28.44
373777,0.24,-0.06,0.88,-10.55,-1.46,3.73,28.44
373787,0.24,-0.07,0.91,-10.21,-8.33,-0.64,28.44
373797,0.21,-0.07,0.92,-9.92,-15.75,-3.72,28.34
373807,0.19,-0.06,0.95,-8.03,-20.67,-5.51,28.39
373817,0.19,-0.06,0.94,-4.98,-20.14,-5.36,28.44
373827,0.19,-0.07,0.93,-3.45,-14.30,-5.29,28.44
373837,0.18,-0.06,0.93,-0.73,-7.01,-5.34,28.53
373847,0.19,-0.06,0.90,1.34,3.32,-5.56,28.48
373857,0.17,-0.04,0.90,3.41,7.06,-6.47,28.48
373867,0.16,-0.03,0.88,4.56,6.89,-7.04,28.34
373877,0.14,-0.02,0.86,3.05,3.11,-7.60,28.44
373887,0.14,-0.02,0.86,2.34,1.42,-6.12,28.44
373897,0.15,-0.03,0.87,0.56,3.25,-3.43,28.48
373907,0.15,-0.04,0.90,-1.91,5.20,-2.70,28.48
373917,0.17,-0.05,0.93,-2.58,8.23,-3.18,28.53
373927,0.16,-0.06,0.96,-0.27,8.91,-3.66,28.44
373937,0.16,-0.06,0.97,3.95,9.66,-4.18,28.48
373947,0.15,-0.06,0.98,8.65,7.87,-6.44,28.58
373957,0.14,-0.04,0.95,11.82,5.50,-8.08,28.39
373967,0.11,-0.03,0.92,13.10,3.78,-7.02,28.44
373977,0.11,-0.03,0.89,12.82,3.27,-4.28,28.44
373987,0.13,-0.03,0.85,10.32,6.91,-2.42,28.53
373997,0.14,-0.04,0.86,6.34,12.57,-2.59,28.48
374007,0.13,-0.04,0.88,2.37,13.40,-3.48,28.44
374017,0.12,-0.03,0.90,0.06,9.55,-2.92,28.53
374027,0.13,-0.04,0.90,0.34,4.97,-2.13,28.44
374037,0.12,-0.05,0.92,3.37,1.15,-1.40,28.39
374047,0.13,-0.05,0.92,6.37,1.43,-0.86,28.39
374057,0.14,-0.06,0.92,7.78,3.65,-1.08,28.53
374067,0.15,-0.05,0.91,8.48,6.46,-0.67,28.53
374077,0.15,-0.05,0.89,7.77,4.96,-0.37,28.44
374087,0.15,-0.05,0.88,6.09,3.03,-1.08,28.39
374097,0.15,-0.04,0.88,6.69,0.18,-2.86,28.48
374107,0.12,-0.02,0.89,8.25,-2.58,-1.98,28.53
374117,0.12,-0.03,0.88,7.85,-3.29,-0.02,28.44
374127,0.13,-0.04,0.89,6.46,-3.28,0.81,28.48
374137,0.15,-0.04,0.90,5.47,-0.73,0.84,28.48
374147,0.15,-0.04,0.91,5.43,-1.03,0.62,28.39
374157,0.16,-0.03,0.91,6.86,-0.14,0.02,28.44
374167,0.15,-0.04,0.90,9.82,0.51,0.01,28.53
374177,0.15,-0.04,0.90,12.52,2.14,0.82,28.44
374187,0.17,-0.04,0.88,11.92,4.54,1.21,28.48
374197,0.17,-0.04,0.88,8.64,6.43,0.66,28.44
374207,0.16,-0.03,0.89,6.75,6.53,-0.86,28.44
374217,0.15,-0.04,0.89,6.24,4.93,-1.48,28.44
374227,0.12,-0.03,0.88,6.28,1.85,-1.73,28.48
374237,0.11,-0.02,0.88,6.53,-1.07,-0.80,28.48
374247,0.13,-0.01,0.88,6.44,-3.26,0.34,28.44
374257,0.14,-0.02,0.89,6.83,-4.84,0.12,28.62
374267,0.15,-0.03,0.89,7.14,-3.83,-0.15,28.58
374277,0.14,-0.02,0.88,7.31,-0.14,-0.83,28.48
374287,0.12,-0.03,0.87,7.08,2.53,-0.56,28.39
374297,0.11,-0.02,0.87,5.99,4.24,1.32,28.44
374307,0.11,-0.01,0.85,4.47,3.44,3.86,28.44
374317,0.13,-0.01,0.86,2.30,3.18,6.38,28.39
374327,0.15,-0.01,0.85,0.33,2.86,5.32,28.39
374337,0.15,-0.01,0.86,-1.10,3.24,3.53,28.44
374347,0.14,-0.01,0.86,-1.20,2.61,3.18,28.44
374357,0.13,-0.02,0.87,-2.00,3.07,4.82,28.44
374367,0.15,-0.03,0.89,-3.16,3.79,6.05,28.53
374377,0.18,-0.05,0.93,-2.83,5.99,5.78,28.48
374387,0.21,-0.06,0.94,-1.65,6.82,2.51,28.44
374397,0.20,-0.05,0.94,1.39,6.97,-1.45,28.44
374407,0.15,-0.05,0.91,4.64,4.50,-1.32,28.44
374417,0.14,-0.04,0.89,5.33,1.53,0.06,28.39
374427,0.14,-0.03,0.89,4.69,0.69,-0.31,28.48
