Millis,Acce_X,Acce_Y,Acce_Z,Gyro_X,Gyro_Y,Gyro_Z,Temp
40097,-0.01,-0.39,1.08,5.16,-4.02,0.78,30.37
40107,-0.01,-0.38,1.07,7.27,-4.89,1.10,30.46
40117,-0.01,-0.36,1.07,9.85,-5.05,1.68,30.46
40127,-0.01,-0.35,1.06,10.24,-5.63,1.48,30.46
40137,-0.00,-0.34,1.05,9.62,-6.58,0.85,30.46
40147,-0.00,-0.32,1.04,9.33,-7.83,0.03,30.51
40157,0.00,-0.31,1.03,9.31,-7.24,-0.76,30.51
40167,-0.00,-0.31,1.02,9.24,-6.63,-0.99,30.51
40177,-0.00,-0.31,1.01,8.84,-4.58,-1.11,30.41
40187,-0.03,-0.30,1.01,8.18,-4.32,-0.55,30.41
40197,-0.04,-0.30,1.02,8.05,-4.64,-0.14,30.37
40207,-0.04,-0.29,1.00,8.37,-6.27,0.09,30.60
40217,-0.05,-0.28,0.96,8.14,-9.19,1.85,30.46
40227,-0.04,-0.26,0.94,8.23,-8.90,3.88,30.46
40237,-0.02,-0.26,0.91,7.36,-5.98,5.74,30.46
40247,-0.01,-0.25,0.88,5.69,-2.58,6.35,30.46
40257,-0.00,-0.26,0.87,3.45,1.07,6.21,30.46
40267,-0.00,-0.25,0.87,1.30,2.31,5.79,30.60
40277,-0.02,-0.25,0.86,-1.60,2.49,5.50,30.51
40287,-0.03,-0.24,0.87,-4.82,1.66,5.60,30.41
40297,-0.05,-0.25,0.86,-6.81,0.17,6.46,30.51
40307,-0.04,-0.26,0.86,-7.85,-2.06,7.30,30.41
40317,-0.03,-0.25,0.85,-8.82,-3.22,6.66,30.51
40327,-0.02,-0.25,0.83,-9.83,-6.73,6.64,30.46
40337,-0.01,-0.23,0.80,-12.34,-8.58,7.34,30.46
40347,0.02,-0.21,0.77,-15.30,-6.66,8.02,30.55
40357,0.03,-0.21,0.76,-17.51,-3.37,8.44,30.46
40367,0.02,-0.22,0.74,-20.98,0.85,8.84,30.46
40377,0.00,-0.22,0.75,-23.24,0.70,8.99,30.41
40387,0.00,-0.24,0.75,-25.50,-0.23,9.21,30.51
40397,0.01,-0.23,0.74,-27.47,-2.55,8.46,30.51
40407,0.02,-0.22,0.71,-29.74,-3.31,8.23,30.51
40417,0.04,-0.22,0.67,-32.43,-4.69,8.70,30.55
40427,0.06,-0.23,0.65,-35.66,-2.64,7.95,30.51
40437,0.05,-0.24,0.64,-40.58,-2.29,6.15,30.46
40447,0.03,-0.24,0.63,-45.85,-3.19,4.82,30.46
40457,-0.00,-0.25,0.62,-51.22,-8.00,4.37,30.46
40467,-0.01,-0.27,0.59,-53.69,-12.87,5.85,30.46
40477,-0.01,-0.28,0.58,-56.32,-16.93,6.84,30.46
40487,-0.01,-0.29,0.57,-59.22,-24.12,8.23,30.41
40497,0.06,-0.30,0.53,-62.96,-20.75,8.92,30.51
40507,0.08,-0.32,0.50,-69.30,-13.62,9.04,30.41
40517,0.08,-0.35,0.53,-77.80,-2.76,9.08,30.41
40527,0.08,-0.38,0.55,-81.65,6.98,10.34,30.51
40537,0.03,-0.41,0.62,-85.47,13.51,10.37,30.41
40547,0.01,-0.43,0.67,-88.37,16.08,10.43,30.37
40557,-0.04,-0.45,0.72,-89.62,12.52,10.38,30.46
40567,-0.06,-0.49,0.75,-90.15,5.77,11.27,30.46
40577,-0.08,-0.51,0.79,-89.73,-5.57,12.69,30.46
40587,-0.07,-0.53,0.79,-88.96,-14.26,14.08,30.46
40597,-0.03,-0.55,0.76,-87.60,-19.59,16.60,30.46
40607,0.03,-0.55,0.70,-87.30,-17.54,19.28,30.41
40617,0.09,-0.57,0.66,-88.34,-9.98,21.36,30.51
40627,0.10,-0.59,0.62,-92.67,-2.79,22.66,30.51
40637,0.10,-0.60,0.60,-99.11,1.77,21.71,30.41
40647,0.09,-0.63,0.62,-106.08,3.15,19.68,30.51
40657,0.08,-0.67,0.65,-110.15,1.82,17.63,30.41
40667,0.06,-0.73,0.70,-110.67,0.44,16.89,30.46
40677,0.05,-0.78,0.74,-108.41,-3.13,16.60,30.55
40687,0.04,-0.82,0.79,-103.30,-9.71,12.44,30.37
40697,0.01,-0.84,0.79,-96.37,-21.66,9.18,30.46
40707,0.01,-0.85,0.80,-89.60,-30.99,5.77,30.55
40717,0.01,-0.83,0.76,-83.62,-40.24,4.27,30.41
40727,0.04,-0.81,0.67,-79.80,-42.14,5.04,30.41
40737,0.09,-0.80,0.59,-79.36,-39.50,6.47,30.51
40747,0.12,-0.84,0.51,-82.49,-34.53,7.51,30.41
40757,0.16,-0.86,0.48,-88.41,-26.29,5.82,30.41
40767,0.15,-0.88,0.50,-94.85,-18.18,2.99,30.46
40777,0.12,-0.92,0.52,-98.69,-12.47,1.34,30.37
40787,0.09,-0.94,0.55,-98.27,-9.65,2.21,30.37
40797,0.06,-0.96,0.58,-95.92,-7.36,2.18,30.55
40807,0.04,-0.96,0.58,-92.93,-8.08,3.05,30.46
40817,0.02,-0.97,0.56,-90.41,-11.51,3.74,30.55
40827,0.03,-0.98,0.53,-89.51,-14.49,3.37,30.46
40837,0.06,-1.00,0.50,-90.21,-15.33,2.17,30.41
40847,0.05,-1.03,0.48,-91.13,-14.21,0.43,30.41
40857,0.03,-1.06,0.48,-90.23,-13.07,-0.92,30.51
40867,-0.00,-1.07,0.47,-88.75,-13.42,-2.78,30.41
40877,-0.04,-1.08,0.45,-87.27,-18.78,-4.50,30.41
40887,-0.07,-1.04,0.41,-86.05,-26.08,-4.06,30.41
40897,-0.05,-1.03,0.30,-85.25,-29.10,-0.09,30.46
40907,-0.00,-1.02,0.21,-90.03,-20.26,6.47,30.46
40917,0.04,-1.03,0.16,-95.51,-9.22,13.83,30.37
40927,0.07,-1.07,0.13,-101.54,10.24,21.05,30.46
40937,0.08,-1.13,0.17,-107.53,26.53,23.19,30.46
40947,0.08,-1.17,0.18,-110.02,36.05,21.34,30.46
40957,0.04,-1.20,0.19,-110.61,35.80,15.79,30.51
40967,0.00,-1.22,0.22,-109.98,25.21,9.86,30.41
40977,-0.04,-1.22,0.23,-109.88,12.84,3.73,30.51
40987,-0.08,-1.21,0.23,-109.63,-0.92,-0.47,30.37
40997,-0.09,-1.20,0.19,-109.89,-11.98,-1.76,30.51
41007,-0.10,-1.20,0.14,-109.88,-20.20,-0.75,30.41
41017,-0.08,-1.21,0.09,-110.40,-22.73,1.48,30.46
41027,-0.04,-1.21,0.05,-110.31,-21.39,5.47,30.46
41037,-0.01,-1.22,0.01,-110.60,-15.01,8.66,30.46
41047,0.00,-1.23,-0.02,-111.66,-6.72,10.14,30.46
41057,-0.01,-1.24,-0.04,-113.21,-2.40,11.60,30.46
41067,-0.01,-1.23,-0.07,-116.41,0.99,12.26,30.46
41077,-0.02,-1.24,-0.08,-120.67,0.96,11.86,30.41
41087,-0.05,-1.28,-0.08,-125.92,-0.12,12.84,30.41
41097,-0.07,-1.31,-0.06,-130.99,1.51,14.87,30.41
41107,-0.11,-1.35,0.00,-133.69,3.53,17.69,30.51
41117,-0.15,-1.39,0.07,-136.53,5.19,19.50,30.37
41127,-0.19,-1.42,0.15,-134.81,1.54,21.28,30.55
41137,-0.18,-1.45,0.19,-127.07,-6.44,24.18,30.46
41147,-0.16,-1.41,0.18,-113.48,-18.67,28.11,30.55
41157,-0.07,-1.33,0.09,-102.05,-31.98,28.90,30.46
41167,0.04,-1.28,-0.04,-98.44,-38.40,25.36,30.46
41177,0.12,-1.24,-0.14,-105.47,-36.78,18.02,30.46
41187,0.18,-1.23,-0.16,-117.36,-27.98,10.32,30.51
41197,0.11,-1.24,-0.10,-128.64,-19.34,4.24,30.51
41207,0.05,-1.28,-0.06,-128.96,-11.95,3.56,30.41
41217,-0.01,-1.30,-0.01,-123.16,-11.36,5.25,30.51
41227,-0.03,-1.31,-0.03,-112.44,-15.34,7.25,30.41
41237,-0.01,-1.32,-0.07,-104.00,-20.26,8.24,30.41
41247,0.02,-1.31,-0.12,-99.85,-23.22,7.51,30.37
41257,0.05,-1.30,-0.18,-100.35,-22.66,7.37,30.46
41267,0.07,-1.27,-0.23,-102.18,-20.23,5.71,30.46
41277,0.13,-1.26,-0.26,-103.59,-10.82,4.89,30.46
41287,0.12,-1.27,-0.27,-109.33,-2.38,4.64,30.46
41297,0.14,-1.28,-0.24,-111.25,8.50,5.11,30.41
41307,0.10,-1.32,-0.17,-111.07,13.31,3.44,30.51
41317,0.06,-1.33,-0.14,-106.98,12.21,-1.25,30.41
41327,0.00,-1.30,-0.15,-100.85,8.32,-6.75,30.51
41337,-0.01,-1.27,-0.20,-98.12,3.57,-8.08,30.55
41347,-0.04,-1.24,-0.22,-95.48,0.31,-7.19,30.51
41357,-0.03,-1.19,-0.28,-96.44,4.02,-3.63,30.46
41367,-0.02,-1.19,-0.29,-96.81,7.68,0.49,30.46
41377,-0.03,-1.20,-0.30,-96.72,6.12,3.37,30.46
41387,-0.00,-1.23,-0.34,-96.47,-0.49,2.93,30.46
41397,0.01,-1.22,-0.35,-99.95,-7.37,-2.47,30.46
41407,-0.01,-1.18,-0.36,-105.79,-21.36,-7.73,30.46
41417,-0.02,-1.14,-0.42,-112.20,-32.11,-8.43,30.41
41427,0.02,-1.07,-0.48,-120.66,-27.89,-0.23,30.51
41437,0.04,-1.06,-0.54,-129.51,-5.92,10.14,30.51
41447,0.06,-1.05,-0.50,-136.27,22.93,18.38,30.51
41457,0.02,-1.08,-0.38,-135.11,37.40,17.04,30.41
41467,-0.04,-1.10,-0.38,-128.99,34.14,16.66,30.46
41477,-0.06,-1.07,-0.34,-123.82,28.69,13.94,30.46
41487,-0.05,-1.06,-0.36,-115.22,22.18,12.02,30.46
41497,-0.04,-1.08,-0.37,-109.56,20.23,10.56,30.46
41507,-0.04,-1.10,-0.32,-108.58,17.07,8.53,30.46
41517,-0.04,-1.09,-0.34,-107.48,15.94,7.79,30.37
41527,-0.05,-1.07,-0.35,-104.79,18.17,7.97,30.51
41537,-0.07,-1.09,-0.33,-97.51,17.45,11.33,30.41
41547,-0.08,-1.03,-0.32,-91.21,14.63,14.02,30.41
41557,-0.08,-1.01,-0.34,-85.97,9.80,14.69,30.41
41567,-0.06,-0.99,-0.36,-82.82,1.83,14.35,30.51
41577,-0.01,-0.99,-0.36,-81.92,-2.31,14.31,30.41
41587,0.08,-1.01,-0.35,-79.56,2.34,14.69,30.46
41597,0.11,-1.01,-0.33,-73.53,15.21,16.02,30.37
41607,0.08,-1.04,-0.28,-64.90,26.98,19.16,30.46
41617,0.07,-1.03,-0.18,-55.54,34.82,20.35,30.46
41627,0.03,-1.04,-0.11,-45.37,31.74,17.05,30.46
41637,0.03,-1.06,-0.08,-35.66,15.53,9.89,30.37
41647,0.06,-1.05,-0.10,-30.38,-1.05,-0.85,30.51
41657,0.07,-1.03,-0.14,-24.99,-17.92,-12.05,30.41
41667,0.09,-1.01,-0.21,-21.07,-27.95,-20.34,30.41
41677,0.13,-0.95,-0.32,-15.95,-25.63,-23.28,30.41
41687,0.11,-0.89,-0.40,-11.28,-13.07,-24.38,30.46
41697,0.04,-0.84,-0.44,-7.15,2.69,-22.17,30.51
41707,-0.05,-0.77,-0.48,-5.94,14.85,-16.69,30.46
41717,-0.16,-0.75,-0.49,-6.09,23.39,-10.64,30.46
41727,-0.25,-0.76,-0.45,-7.27,18.43,-5.40,30.46
41737,-0.29,-0.77,-0.44,-6.46,3.92,-1.85,30.46
41747,-0.30,-0.80,-0.46,-2.76,-16.70,-0.35,30.46
41757,-0.23,-0.79,-0.52,1.25,-33.25,-1.10,30.37
41767,-0.14,-0.77,-0.62,5.57,-42.55,0.66,30.51
41777,-0.05,-0.72,-0.76,8.56,-35.28,5.60,30.41
41787,0.01,-0.66,-0.87,7.51,-15.05,14.87,30.51
41797,0.06,-0.65,-0.90,3.85,8.96,25.51,30.51
41807,0.06,-0.68,-0.86,-4.21,29.05,30.79,30.41
41817,0.01,-0.74,-0.77,-12.63,34.89,29.05,30.46
41827,-0.06,-0.78,-0.67,-16.76,26.09,21.13,30.55
41837,-0.11,-0.80,-0.60,-15.15,7.59,13.71,30.46
41847,-0.15,-0.80,-0.59,-10.00,-9.89,9.47,30.46
41857,-0.13,-0.77,-0.58,-4.34,-18.85,9.19,30.46
41867,-0.08,-0.75,-0.60,0.96,-22.05,12.11,30.46
41877,-0.01,-0.74,-0.64,2.99,-16.44,15.40,30.51
41887,0.03,-0.75,-0.66,2.81,-7.34,16.75,30.51
41897,0.04,-0.74,-0.64,3.22,0.21,16.58,30.41
41907,0.05,-0.75,-0.63,2.73,3.69,14.99,30.51
41917,0.04,-0.77,-0.61,0.66,3.57,10.58,30.51
41927,-0.01,-0.78,-0.57,-0.85,-3.10,5.48,30.41
41937,-0.05,-0.77,-0.53,-1.45,-10.50,2.02,30.46
41947,-0.06,-0.78,-0.50,0.98,-16.53,0.02,30.46
41957,-0.05,-0.78,-0.51,5.11,-18.72,0.29,30.46
41967,-0.03,-0.78,-0.52,10.32,-16.99,1.66,30.46
41977,-0.01,-0.77,-0.55,13.82,-13.77,3.42,30.37
41987,0.00,-0.76,-0.55,14.73,-10.35,4.69,30.46
41997,0.02,-0.78,-0.54,13.18,-10.38,5.15,30.41
42007,0.03,-0.79,-0.53,11.01,-11.76,3.05,30.51
42017,0.05,-0.81,-0.52,11.08,-14.08,-0.21,30.41
42027,0.05,-0.82,-0.50,13.36,-16.34,-2.69,30.41
42037,0.04,-0.84,-0.46,16.14,-16.90,-4.03,30.46
42047,0.04,-0.84,-0.42,18.35,-16.87,-3.92,30.41
42057,0.03,-0.86,-0.40,19.37,-17.40,-4.55,30.46
42067,0.01,-0.88,-0.36,20.64,-20.92,-5.68,30.46
42077,0.01,-0.89,-0.34,23.31,-28.87,-6.76,30.37
42087,0.03,-0.92,-0.33,25.74,-38.92,-9.31,30.55
42097,0.05,-0.97,-0.29,25.66,-51.80,-16.29,30.37
42107,0.07,-1.00,-0.24,26.31,-68.15,-28.81,30.55
42117,0.06,-1.04,-0.20,30.41,-85.51,-44.05,30.41
42127,0.07,-1.04,-0.21,36.79,-99.24,-57.79,30.51
42137,0.07,-1.04,-0.24,45.98,-110.64,-68.84,30.51
42147,0.05,-1.01,-0.30,55.82,-114.20,-74.09,30.41
42157,0.04,-0.96,-0.39,63.05,-110.20,-72.27,30.41
42167,0.06,-0.92,-0.47,65.33,-95.15,-64.87,30.37
42177,0.09,-0.88,-0.52,63.47,-70.76,-54.26,30.46
42187,0.16,-0.87,-0.55,59.40,-42.64,-42.40,30.46
42197,0.15,-0.91,-0.49,57.04,-22.49,-33.30,30.46
42207,0.18,-0.99,-0.47,55.45,0.00,-28.72,30.46
42217,0.16,-1.06,-0.38,57.40,13.10,-27.89,30.46
42227,0.14,-1.11,-0.32,59.31,21.95,-30.03,30.46
42237,0.09,-1.14,-0.27,62.67,27.51,-33.22,30.51
42247,0.03,-1.17,-0.23,67.98,29.24,-34.96,30.41
42257,-0.03,-1.18,-0.20,74.31,25.07,-35.24,30.41
42267,-0.04,-1.18,-0.23,80.24,23.94,-34.63,30.51
42277,-0.04,-1.19,-0.25,84.70,21.69,-34.05,30.32
42287,-0.04,-1.18,-0.25,88.67,20.55,-33.79,30.46
42297,-0.02,-1.18,-0.27,91.24,19.92,-33.34,30.37
42307,-0.02,-1.18,-0.29,92.76,19.91,-33.36,30.37
42317,-0.01,-1.20,-0.29,93.42,20.20,-34.34,30.27
42327,-0.01,-1.24,-0.28,93.86,18.00,-37.80,30.46
42337,-0.04,-1.24,-0.24,95.28,10.34,-38.76,30.46
42347,-0.01,-1.25,-0.26,97.30,6.17,-40.17,30.41
42357,-0.01,-1.25,-0.26,98.40,2.99,-40.66,30.41
42367,0.02,-1.26,-0.26,100.85,4.76,-41.24,30.41
42377,-0.01,-1.29,-0.23,103.79,7.86,-40.90,30.41
42387,-0.03,-1.31,-0.20,105.19,11.01,-38.50,30.37
42397,-0.04,-1.35,-0.20,110.95,14.70,-36.70,30.41
42407,-0.05,-1.38,-0.20,116.99,11.28,-36.66,30.37
42417,-0.02,-1.39,-0.21,118.70,10.35,-39.51,30.37
42427,-0.01,-1.38,-0.24,119.08,0.47,-43.15,30.37
42437,0.01,-1.35,-0.26,116.37,-8.35,-47.34,30.46
42447,0.04,-1.33,-0.27,113.01,-15.82,-50.02,30.37
42457,0.07,-1.29,-0.33,111.94,-14.21,-48.50,30.46
42467,0.10,-1.23,-0.40,112.23,-4.20,-39.83,30.51
42477,0.16,-1.18,-0.53,113.07,19.30,-22.46,30.41
42487,0.24,-1.13,-0.63,110.67,58.05,0.46,30.41
42497,0.31,-1.16,-0.63,105.47,100.37,19.66,30.41
42507,0.30,-1.24,-0.52,94.32,133.73,27.30,30.51
42517,0.22,-1.34,-0.30,88.18,146.67,24.31,30.37
42527,0.14,-1.42,-0.11,90.31,133.56,12.49,30.46
42537,0.01,-1.48,0.06,98.69,96.02,-4.21,30.37
42547,-0.10,-1.52,0.15,105.57,51.59,-23.88,30.37
42557,-0.15,-1.48,0.13,115.74,12.67,-36.69,30.37
42567,-0.11,-1.41,0.05,124.66,-11.97,-37.97,30.46
42577,-0.03,-1.35,-0.06,130.66,-13.21,-33.07,30.41
42587,0.03,-1.32,-0.13,131.56,3.89,-22.82,30.41
42597,0.11,-1.28,-0.16,126.17,27.91,-16.05,30.41
42607,0.10,-1.28,-0.11,119.95,45.51,-13.79,30.46
42617,0.04,-1.31,-0.00,116.43,50.17,-14.29,30.41
42627,-0.02,-1.35,0.12,118.92,43.39,-17.51,30.46
42637,-0.03,-1.37,0.16,126.38,31.45,-20.58,30.37
42647,-0.06,-1.35,0.18,136.56,11.86,-23.24,30.37
42657,-0.05,-1.35,0.16,143.54,2.87,-24.21,30.37
42667,-0.03,-1.34,0.17,146.63,-7.11,-26.75,30.37
42677,0.01,-1.31,0.15,147.68,-11.16,-29.68,30.41
42687,0.01,-1.30,0.14,148.11,-14.98,-33.53,30.41
42697,0.03,-1.27,0.12,148.50,-16.46,-38.27,30.32
42707,0.04,-1.25,0.11,150.02,-17.25,-40.61,30.41
42717,0.03,-1.23,0.09,150.35,-16.12,-39.44,30.41
42727,0.04,-1.18,0.09,150.55,-9.01,-33.66,30.46
42737,0.06,-1.13,0.10,154.66,4.12,-21.66,30.37
42747,0.08,-1.08,0.17,157.27,17.19,-7.54,30.27
42757,0.10,-1.06,0.24,160.09,25.66,5.15,30.46
42767,0.10,-1.04,0.28,161.01,30.43,15.71,30.27
42777,0.11,-1.07,0.40,158.11,26.34,21.77,30.41
42787,0.13,-1.10,0.43,150.66,14.82,19.22,30.41
42797,0.18,-1.09,0.42,138.03,6.46,12.47,30.32
42807,0.23,-1.05,0.43,126.93,1.54,5.92,30.51
42817,0.28,-1.02,0.41,118.29,6.27,-0.35,30.41
42827,0.28,-1.03,0.43,109.95,13.08,-7.33,30.37
42837,0.26,-1.04,0.46,102.14,19.18,-17.01,30.46
42847,0.22,-1.03,0.48,95.18,24.96,-28.61,30.46
42857,0.13,-1.02,0.53,95.77,28.11,-38.34,30.46
42867,0.02,-0.99,0.55,101.76,30.87,-41.50,30.46
42877,-0.05,-0.95,0.54,108.76,40.41,-38.99,30.37
42887,-0.09,-0.90,0.51,119.50,41.21,-32.00,30.41
42897,-0.11,-0.83,0.47,126.53,43.01,-23.73,30.32
42907,-0.11,-0.76,0.45,126.08,43.25,-19.54,30.32
42917,-0.12,-0.70,0.46,118.76,38.31,-18.00,30.37
42927,-0.15,-0.67,0.54,106.81,19.74,-21.10,30.41
42937,-0.09,-0.68,0.52,100.72,2.06,-20.08,30.37
42947,-0.01,-0.65,0.48,98.92,-3.83,-19.16,30.37
42957,0.13,-0.64,0.47,95.74,4.64,-16.21,30.37
42967,0.19,-0.66,0.51,92.03,22.18,-14.78,30.37
42977,0.23,-0.67,0.55,87.45,45.21,-14.67,30.37
42987,0.19,-0.69,0.64,84.69,61.22,-15.91,30.41
42997,0.12,-0.68,0.73,83.34,65.24,-18.31,30.32
43007,0.04,-0.65,0.73,80.78,58.40,-21.57,30.41
43017,-0.01,-0.55,0.71,77.22,47.60,-20.89,30.32
43027,-0.05,-0.48,0.70,71.40,33.53,-17.53,30.32
43037,-0.06,-0.46,0.69,62.89,19.25,-11.56,30.46
43047,-0.02,-0.45,0.68,55.65,13.13,-2.70,30.37
43057,0.07,-0.47,0.70,52.61,13.95,4.52,30.37
43067,0.13,-0.50,0.72,52.84,19.50,7.94,30.27
43077,0.18,-0.52,0.72,53.08,24.93,8.08,30.37
43087,0.19,-0.53,0.76,51.47,30.47,4.66,30.32
43097,0.16,-0.54,0.81,53.57,32.89,0.21,30.41
43107,0.13,-0.51,0.86,55.89,33.42,-3.88,30.41
43117,0.09,-0.46,0.83,54.40,32.79,-5.76,30.32
43127,0.05,-0.39,0.82,51.13,27.88,-5.63,30.41
43137,0.01,-0.36,0.84,45.44,22.35,-4.73,30.37
43147,-0.03,-0.33,0.86,38.82,14.06,-2.72,30.46
43157,-0.04,-0.32,0.87,34.26,7.89,0.14,30.37
43167,-0.03,-0.33,0.88,32.98,5.37,5.92,30.46
43177,0.01,-0.34,0.88,34.90,8.72,10.79,30.46
43187,0.05,-0.36,0.89,37.15,13.07,12.84,30.46
43197,0.07,-0.37,0.91,38.87,16.26,11.25,30.41
43207,0.06,-0.35,0.92,38.67,17.63,7.82,30.32
43217,0.05,-0.31,0.91,35.98,17.69,6.14,30.41
43227,0.03,-0.27,0.91,30.18,18.35,6.32,30.32
43237,0.00,-0.22,0.94,22.34,17.54,7.89,30.41
43247,-0.03,-0.22,0.99,13.18,15.86,11.86,30.41
43257,-0.06,-0.23,1.04,6.73,10.32,16.89,30.27
43267,-0.03,-0.28,1.08,5.73,2.12,22.96,30.37
43277,0.02,-0.34,1.10,7.51,-2.17,26.55,30.37
43287,0.08,-0.39,1.09,14.43,-4.75,26.27,30.37
43297,0.15,-0.42,1.05,22.69,-7.28,22.21,30.46
43307,0.20,-0.40,0.95,27.79,-11.02,15.16,30.32
43317,0.24,-0.37,0.82,30.81,-11.10,7.24,30.41
43327,0.24,-0.30,0.70,29.82,-6.47,-0.24,30.41
43337,0.22,-0.22,0.59,23.66,1.97,-5.62,30.41
43347,0.16,-0.17,0.57,13.02,12.78,-7.79,30.41
43357,0.09,-0.17,0.62,4.44,17.08,-8.08,30.27
43367,0.01,-0.18,0.68,-0.73,16.81,-9.11,30.37
43377,-0.04,-0.19,0.74,-3.18,15.63,-8.90,30.37
43387,-0.08,-0.18,0.76,-2.56,14.29,-5.01,30.37
43397,-0.11,-0.18,0.76,-0.92,14.79,2.15,30.46
43407,-0.11,-0.19,0.76,-0.08,16.81,8.53,30.37
43417,-0.08,-0.22,0.78,-0.24,15.92,10.55,30.41
43427,-0.06,-0.24,0.80,-1.40,11.27,9.07,30.32
43437,-0.05,-0.25,0.79,-2.92,2.03,5.37,30.41
43447,-0.06,-0.23,0.77,-4.29,-5.80,3.65,30.37
43457,-0.03,-0.18,0.72,-4.69,-7.63,7.50,30.32
43467,0.02,-0.16,0.69,-7.65,0.61,12.55,30.37
43477,0.05,-0.18,0.75,-12.03,11.44,15.56,30.27
43487,0.07,-0.22,0.84,-14.89,18.52,14.78,30.37
43497,0.05,-0.25,0.92,-17.30,19.73,10.64,30.46
43507,0.04,-0.25,0.98,-19.16,19.65,6.46,30.46
43517,0.00,-0.28,1.04,-16.81,17.34,6.18,30.37
43527,-0.02,-0.29,1.11,-11.73,15.33,9.11,30.32
43537,-0.05,-0.27,1.15,-7.15,12.69,12.76,30.41
43547,-0.02,-0.29,1.17,-4.67,8.38,16.84,30.41
43557,0.03,-0.28,1.15,-4.12,2.89,15.73,30.41
43567,0.08,-0.31,1.14,-5.47,-0.50,11.30,30.41
43577,0.11,-0.33,1.15,-7.80,-4.23,4.64,30.37
43587,0.11,-0.32,1.13,-8.87,-5.54,-1.08,30.46
43597,0.10,-0.31,1.14,-7.74,-5.97,-3.33,30.46
43607,0.10,-0.31,1.13,-6.06,-2.11,-3.51,30.37
43617,0.07,-0.29,1.15,-5.30,2.11,-3.77,30.46
43627,0.06,-0.31,1.18,-3.89,5.21,-4.98,30.37
43637,0.04,-0.32,1.20,-0.67,5.73,-6.84,30.41
43647,0.03,-0.31,1.20,2.67,5.63,-8.87,30.41
43657,0.01,-0.30,1.19,5.21,1.89,-9.89,30.41
43667,0.00,-0.29,1.17,7.44,0.46,-8.18,30.37
43677,0.01,-0.28,1.12,8.64,-1.33,-6.08,30.41
43687,0.03,-0.28,1.10,9.40,-0.17,-5.80,30.37
43697,0.06,-0.26,1.06,10.05,3.89,-6.21,30.46
43707,0.06,-0.26,1.04,9.83,8.20,-6.12,30.27
43717,0.04,-0.26,1.03,9.57,9.39,-6.87,30.37
43727,0.03,-0.25,1.03,7.80,7.80,-7.95,30.37
43737,0.00,-0.24,1.02,5.51,5.69,-9.25,30.37
43747,-0.01,-0.24,1.01,3.68,2.41,-10.03,30.41
43757,-0.01,-0.24,0.98,3.02,2.67,-9.79,30.41
43767,-0.02,-0.25,0.99,2.53,3.71,-9.62,30.41
43777,-0.02,-0.26,0.98,4.31,5.05,-8.70,30.41
43787,-0.01,-0.27,0.98,6.06,6.82,-7.89,30.51
43797,-0.02,-0.25,0.97,7.60,4.50,-6.02,30.37
43807,-0.01,-0.23,0.91,8.06,4.05,-6.09,30.37
43817,-0.00,-0.22,0.88,6.26,2.56,-6.49,30.46
43827,-0.00,-0.20,0.86,3.33,2.20,-6.70,30.46
43837,0.00,-0.19,0.86,-1.08,3.04,-7.82,30.46
43847,-0.03,-0.19,0.89,-5.11,3.94,-7.04,30.55
43857,-0.05,-0.20,0.92,-6.64,4.17,-5.05,30.41
43867,-0.04,-0.21,0.92,-6.90,4.41,-3.04,30.41
43877,-0.04,-0.21,0.94,-8.72,3.85,-1.71,30.51
43887,-0.03,-0.22,0.95,-10.06,3.05,-0.93,30.41
43897,-0.02,-0.23,0.98,-10.38,3.80,-1.04,30.32
43907,-0.03,-0.24,1.00,-10.00,4.03,-0.70,30.41
43917,-0.03,-0.24,1.01,-9.33,3.51,-0.44,30.46
43927,-0.02,-0.24,0.99,-8.89,3.21,0.53,30.46
43937,-0.01,-0.25,0.99,-9.95,2.24,1.05,30.37
43947,0.01,-0.26,1.00,-12.21,-0.24,0.35,30.46
43957,0.01,-0.25,1.00,-15.44,-1.95,-1.66,30.46
43967,0.01,-0.24,1.01,-17.30,-3.88,-3.33,30.41
43977,0.01,-0.24,1.00,-18.44,-3.22,-3.15,30.32
43987,0.03,-0.25,1.02,-19.16,0.58,-2.06,30.51
43997,0.03,-0.27,1.03,-19.33,6.05,-1.44,30.41
44007,0.02,-0.29,1.07,-18.58,10.82,-1.98,30.41
44017,-0.01,-0.31,1.10,-16.96,10.29,-2.96,30.46
44027,-0.02,-0.32,1.15,-13.68,9.45,-4.69,30.37
44037,-0.04,-0.33,1.15,-8.29,3.74,-5.56,30.46
44047,-0.06,-0.32,1.13,-3.86,-2.43,-6.23,30.46
44057,-0.05,-0.30,1.08,0.44,-8.12,-5.65,30.37
44067,-0.03,-0.29,1.02,2.63,-10.27,-6.00,30.37
44077,-0.04,-0.26,0.99,-0.05,-11.92,-7.04,30.46
44087,-0.00,-0.25,0.93,-3.56,-12.70,-6.49,30.41
44097,0.01,-0.25,0.93,-8.11,-10.53,-7.28,30.51
44107,0.01,-0.25,0.93,-10.84,-5.07,-8.24,30.32
44117,0.01,-0.26,0.95,-12.66,2.90,-7.63,30.32
44127,-0.00,-0.28,0.98,-13.73,8.15,-6.32,30.51
44137,-0.03,-0.31,1.03,-13.07,6.38,-5.40,30.51
44147,-0.05,-0.32,1.05,-12.35,2.37,-4.05,30.46
44157,-0.03,-0.31,1.02,-10.00,-0.52,-1.60,30.46
44167,0.01,-0.31,1.01,-8.37,1.28,2.09,30.37
44177,0.04,-0.31,0.99,-8.90,4.40,4.00,30.37
44187,0.05,-0.33,1.00,-10.40,5.21,3.16,30.46
44197,0.04,-0.34,1.01,-10.47,0.96,0.20,30.32
44207,0.05,-0.35,1.00,-9.66,-4.41,-3.97,30.51
44217,0.05,-0.33,0.97,-8.75,-7.18,-6.05,30.32
44227,0.06,-0.30,0.94,-7.65,-3.59,-4.92,30.41
44237,0.06,-0.29,0.93,-7.91,3.76,-2.93,30.37
44247,0.07,-0.30,0.94,-9.37,12.82,-1.63,30.41
44257,0.05,-0.30,0.99,-11.42,18.31,-2.18,30.46
44267,0.01,-0.31,1.02,-12.92,18.67,-2.61,30.46
44277,-0.01,-0.30,1.02,-12.76,17.42,-1.97,30.46
44287,-0.02,-0.30,1.04,-13.02,15.88,0.15,30.37
44297,-0.02,-0.31,1.05,-13.68,13.21,0.92,30.37
44307,-0.02,-0.30,1.07,-14.63,10.55,1.16,30.51
44317,-0.03,-0.32,1.07,-15.44,6.15,0.52,30.51
44327,-0.02,-0.33,1.08,-15.39,2.56,0.03,30.51
44337,-0.01,-0.34,1.08,-13.69,1.62,0.49,30.41
44347,0.00,-0.35,1.08,-11.37,1.83,1.40,30.51
44357,-0.01,-0.35,1.08,-9.45,2.17,1.86,30.41
44367,-0.00,-0.34,1.07,-7.82,1.44,1.62,30.37
44377,0.00,-0.34,1.06,-7.18,-0.17,1.05,30.37
44387,0.01,-0.35,1.05,-6.20,-3.54,0.31,30.37
44397,0.01,-0.35,1.05,-5.44,-5.25,-1.15,30.37
44407,0.01,-0.36,1.04,-3.51,-7.71,-1.95,30.46
44417,0.04,-0.37,1.03,-1.36,-11.05,-3.25,30.46
44427,0.07,-0.38,1.01,1.36,-15.66,-6.95,30.51
44437,0.07,-0.38,1.03,3.45,-21.76,-12.70,30.41
44447,0.09,-0.35,0.96,6.37,-23.13,-16.08,30.41
44457,0.11,-0.32,0.91,7.02,-17.45,-16.82,30.37
44467,0.10,-0.30,0.89,5.40,-8.14,-15.13,30.41
44477,0.08,-0.29,0.90,3.37,3.77,-13.05,30.41
44487,0.03,-0.29,0.93,0.35,11.94,-11.37,30.46
44497,-0.01,-0.28,0.95,-3.27,15.47,-10.09,30.37
44507,-0.05,-0.26,0.97,-6.92,14.49,-7.50,30.46
44517,-0.07,-0.26,1.00,-9.11,13.51,-3.11,30.46
44527,-0.09,-0.28,1.02,-11.07,12.02,1.07,30.37
44537,-0.07,-0.30,1.05,-12.09,9.97,4.27,30.41
44547,-0.07,-0.32,1.07,-12.95,6.89,5.31,30.41
44557,-0.04,-0.34,1.09,-12.82,2.18,6.15,30.41
44567,-0.01,-0.34,1.08,-12.72,-0.43,5.97,30.32
44577,0.00,-0.35,1.08,-12.05,-3.10,6.21,30.41
44587,0.02,-0.35,1.06,-11.30,-3.22,6.41,30.46
44597,0.04,-0.36,1.06,-10.21,-0.35,6.58,30.46
44607,0.04,-0.36,1.06,-9.95,2.23,5.94,30.46
44617,0.05,-0.37,1.06,-10.24,2.98,4.41,30.46
44627,0.04,-0.37,1.07,-9.86,0.84,2.53,30.46
44637,0.05,-0.36,1.07,-9.44,-2.23,0.55,30.37
44647,0.04,-0.36,1.06,-8.82,-5.45,-0.82,30.41
44657,0.05,-0.35,1.04,-7.95,-4.85,-1.40,30.41
44667,0.06,-0.34,1.02,-7.56,-0.17,-0.96,30.41
44677,0.06,-0.33,1.00,-7.76,6.17,-0.02,30.32
44687,0.05,-0.34,1.01,-9.51,10.84,-1.02,30.32
44697,0.00,-0.35,1.03,-9.91,11.27,-1.88,30.41
44707,-0.02,-0.34,1.05,-9.28,10.15,-1.76,30.46
44717,-0.04,-0.34,1.06,-8.38,7.82,-0.75,30.46
44727,-0.04,-0.34,1.04,-7.13,5.62,0.49,30.37
44737,-0.05,-0.34,1.04,-7.30,3.37,1.02,30.46
44747,-0.04,-0.35,1.03,-7.80,0.66,2.14,30.37
44757,-0.01,-0.35,1.01,-8.24,0.64,2.20,30.46
44767,-0.00,-0.36,1.01,-8.89,1.82,2.37,30.41
44777,0.01,-0.36,1.01,-8.98,3.39,2.87,30.51
44787,0.01,-0.36,1.01,-7.83,5.02,3.37,30.41
44797,0.02,-0.36,1.01,-7.18,4.52,2.38,30.51
44807,0.01,-0.36,1.01,-6.73,3.21,0.95,30.37
44817,0.00,-0.35,1.00,-6.85,0.12,0.21,30.37
44827,0.01,-0.34,0.99,-7.40,-0.95,-0.02,30.46
44837,0.03,-0.34,0.99,-8.14,-0.20,0.55,30.37
44847,0.03,-0.34,0.98,-9.30,2.89,1.31,30.46
44857,0.04,-0.35,1.00,-9.65,3.21,2.00,30.37
44867,0.03,-0.36,1.01,-9.56,3.15,0.44,30.46
44877,0.01,-0.38,1.02,-7.94,0.73,-1.51,30.41
44887,0.00,-0.39,1.01,-6.21,-3.80,-3.30,30.41
44897,0.00,-0.38,1.02,-4.87,-7.76,-4.73,30.51
44907,0.00,-0.35,0.98,-4.00,-9.85,-4.64,30.41
44917,0.01,-0.32,0.94,-4.99,-6.76,-3.53,30.41
44927,0.03,-0.33,0.91,-7.27,0.02,-2.29,30.41
44937,0.03,-0.35,0.93,-8.37,5.40,-0.92,30.46
44947,0.03,-0.35,0.96,-10.70,9.10,-2.02,30.46
44957,-0.00,-0.35,0.99,-11.44,7.28,-3.71,30.46
44967,-0.04,-0.35,1.00,-11.66,4.55,-3.44,30.37
44977,-0.04,-0.34,1.00,-11.53,2.26,-1.85,30.46
44987,-0.04,-0.35,1.01,-10.90,3.74,0.58,30.46
44997,-0.03,-0.36,1.01,-10.14,4.63,3.24,30.41
45007,-0.02,-0.36,1.01,-9.56,5.19,4.47,30.41
45017,-0.01,-0.35,1.00,-10.17,4.67,4.44,30.41
45027,0.00,-0.35,0.99,-11.54,2.75,3.89,30.51
45037,0.01,-0.36,0.97,-13.10,1.34,2.76,30.41
45047,0.02,-0.38,0.99,-13.68,0.00,1.68,30.41
45057,0.01,-0.39,1.03,-12.78,0.06,0.92,30.46
