Timestamp,Acce_X,Acce_Y,Acce_Z,Gyro_X,Gyro_Y,Gyro_Z,Temp
211257,-0.13,0.20,0.73,14.99,15.00,4.05,28.77
211267,-0.17,0.21,0.71,13.61,8.52,6.66,28.81
211277,-0.17,0.19,0.67,9.85,-0.41,9.18,28.81
211287,-0.18,0.18,0.66,6.82,-9.73,10.33,28.72
211297,-0.19,0.18,0.65,3.24,-21.60,10.82,28.77
211307,-0.19,0.18,0.61,-0.40,-31.57,13.50,28.77
211317,-0.16,0.17,0.55,-7.48,-32.24,16.97,28.72
211327,-0.14,0.16,0.53,-11.35,-28.79,19.64,28.72
211337,-0.08,0.17,0.55,-16.18,-19.15,20.68,28.62
211347,-0.13,0.13,0.52,-17.79,-19.27,21.47,28.77
211357,-0.07,0.11,0.45,-18.53,-12.39,23.99,28.81
211367,0.01,0.04,0.41,-17.94,4.42,24.76,28.81
211377,0.12,0.02,0.46,-17.76,32.21,21.30,28.72
211387,0.11,-0.04,0.54,-21.65,51.58,15.60,28.77
211397,0.11,-0.05,0.59,-29.50,63.74,11.92,28.77
211407,0.08,-0.08,0.65,-37.47,64.54,7.78,28.72
211417,0.06,-0.09,0.67,-41.86,55.02,1.77,28.72
211427,0.02,-0.09,0.65,-48.76,42.56,-1.66,28.77
211437,-0.03,-0.10,0.61,-59.43,24.68,-2.35,28.77
211447,-0.05,-0.11,0.60,-74.25,-0.36,-4.35,28.81
211457,-0.09,-0.11,0.53,-92.09,-25.47,-4.63,28.72
211467,-0.08,-0.15,0.50,-109.63,-44.23,-2.64,28.77
211477,-0.03,-0.20,0.45,-119.37,-49.60,-4.41,28.67
211487,-0.05,-0.23,0.45,-121.87,-43.77,-2.65,28.77
211497,-0.03,-0.25,0.38,-118.08,-32.50,1.08,28.72
211507,0.00,-0.26,0.27,-118.48,-16.85,4.42,28.72
211517,-0.03,-0.29,0.15,-123.84,-8.82,6.37,28.72
211527,-0.02,-0.32,0.10,-136.66,-7.39,7.94,28.67
211537,0.01,-0.38,0.02,-153.13,-6.94,7.98,28.72
211547,-0.04,-0.44,0.03,-171.69,-19.11,6.99,28.72
211557,-0.05,-0.49,-0.02,-189.44,-21.32,5.77,28.67
211567,-0.16,-0.54,0.01,-201.73,-20.06,10.48,28.67
211577,-0.18,-0.62,-0.02,-206.76,-15.14,21.22,28.77
211587,-0.08,-0.72,-0.10,-212.74,12.37,30.41,28.72
211597,-0.02,-0.84,-0.11,-219.63,49.34,33.28,28.72
211607,-0.05,-0.95,-0.01,-229.08,77.89,33.41,28.77
211617,-0.08,-1.05,0.18,-236.34,86.11,30.98,28.67
211627,-0.12,-1.10,0.31,-239.50,78.91,25.60,28.72
211637,-0.17,-1.13,0.31,-243.56,64.63,23.25,28.72
211647,-0.19,-1.16,0.26,-246.08,55.31,23.11,28.67
211657,-0.21,-1.19,0.21,-250.14,55.93,24.91,28.77
211667,-0.22,-1.24,0.24,-250.14,62.48,29.69,28.81
211677,-0.22,-1.29,0.25,-250.14,78.08,33.18,28.81
211687,-0.25,-1.33,0.28,-250.14,92.24,39.92,28.72
211697,-0.22,-1.44,0.26,-250.14,91.05,45.79,28.77
211707,-0.12,-1.53,0.25,-250.14,88.47,44.66,28.77
211717,-0.10,-1.61,0.30,-250.14,78.57,40.86,28.72
211727,-0.04,-1.69,0.42,-250.14,68.15,34.31,28.72
211737,-0.05,-1.70,0.48,-250.14,60.11,26.47,28.77
211747,-0.07,-1.70,0.50,-250.14,54.63,25.37,28.77
211757,-0.05,-1.71,0.37,-248.54,51.17,22.95,28.81
211767,-0.05,-1.73,0.28,-240.40,55.78,21.15,28.81
211777,-0.01,-1.79,0.24,-234.35,50.89,14.92,28.77
211787,-0.02,-1.83,0.25,-234.75,34.76,5.93,28.77
211797,-0.02,-1.86,0.28,-236.94,11.47,-1.07,28.67
211807,0.08,-1.90,0.26,-233.02,-1.77,-13.09,28.81
211817,0.08,-1.89,0.28,-224.11,-4.03,-24.66,28.72
211827,0.06,-1.87,0.31,-204.27,-16.21,-34.90,28.77
211837,0.10,-1.83,0.20,-193.44,-24.18,-49.23,28.67
211847,0.01,-1.80,0.18,-186.77,-36.56,-64.95,28.72
211857,-0.12,-1.72,0.20,-185.43,-60.08,-74.73,28.81
211867,-0.22,-1.68,0.15,-179.24,-69.74,-79.73,28.72
211877,-0.31,-1.63,0.11,-170.02,-69.55,-78.09,28.77
211887,-0.36,-1.58,0.05,-158.73,-56.11,-72.31,28.72
211897,-0.41,-1.53,-0.02,-152.40,-45.82,-64.50,28.72
211907,-0.42,-1.48,-0.02,-147.85,-35.82,-55.95,28.67
211917,-0.38,-1.46,-0.03,-146.84,-37.63,-54.37,28.77
211927,-0.39,-1.43,-0.01,-147.43,-39.27,-52.29,28.67
211937,-0.41,-1.42,0.01,-142.66,-44.31,-49.06,28.72
211947,-0.37,-1.39,-0.01,-136.89,-41.92,-43.31,28.81
211957,-0.34,-1.38,0.03,-133.50,-41.35,-39.10,28.77
211967,-0.29,-1.38,0.11,-126.37,-55.18,-39.01,28.67
211977,-0.25,-1.35,0.10,-121.19,-66.47,-39.70,28.81
211987,-0.15,-1.34,0.05,-116.19,-69.90,-38.98,28.72
211997,-0.12,-1.34,0.06,-106.69,-71.20,-40.47,28.67
212007,-0.11,-1.31,0.03,-102.47,-71.81,-40.69,28.67
212017,-0.10,-1.28,0.01,-96.65,-70.20,-43.85,28.67
212027,-0.15,-1.23,-0.02,-89.13,-67.73,-41.85,28.72
212037,-0.14,-1.19,-0.06,-80.58,-60.05,-38.60,28.72
212047,-0.12,-1.16,-0.10,-70.77,-50.18,-35.18,28.72
212057,-0.10,-1.16,-0.18,-65.44,-41.10,-31.49,28.77
212067,-0.03,-1.15,-0.22,-63.13,-36.89,-31.50,28.72
212077,-0.10,-1.13,-0.25,-60.35,-40.41,-32.09,28.81
212087,-0.04,-1.09,-0.23,-58.54,-28.94,-38.02,28.67
212097,-0.11,-1.03,-0.30,-60.68,-33.95,-41.07,28.77
212107,-0.23,-0.98,-0.29,-62.06,-47.12,-37.62,28.86
212117,-0.23,-0.96,-0.39,-62.56,-47.62,-30.24,28.72
212127,-0.21,-0.95,-0.40,-59.90,-42.22,-22.30,28.72
212137,-0.12,-0.95,-0.45,-59.20,-29.11,-13.77,28.77
212147,0.00,-0.98,-0.45,-57.90,-14.84,-12.11,28.67
212157,0.08,-0.97,-0.44,-58.49,-1.71,-14.34,28.72
212167,0.08,-0.96,-0.37,-60.62,1.04,-19.58,28.72
212177,0.02,-0.96,-0.27,-60.75,-5.24,-23.89,28.67
212187,-0.04,-0.96,-0.19,-57.89,-14.22,-27.81,28.77
212197,-0.09,-0.93,-0.17,-50.37,-17.16,-26.88,28.67
212207,-0.11,-0.92,-0.24,-42.53,-14.30,-21.98,28.72
212217,-0.11,-0.90,-0.28,-42.98,-6.08,-18.11,28.72
212227,-0.13,-0.88,-0.29,-44.89,-3.59,-14.61,28.72
212237,-0.15,-0.87,-0.31,-46.35,-8.53,-11.70,28.77
212247,-0.12,-0.85,-0.34,-44.60,-14.64,-9.83,28.72
212257,-0.16,-0.87,-0.38,-37.51,-19.00,-5.56,28.62
212267,-0.05,-0.83,-0.46,-31.44,-7.66,-2.44,28.67
212277,-0.03,-0.82,-0.50,-32.20,3.53,-2.12,28.77
212287,-0.10,-0.82,-0.47,-37.78,1.87,-5.23,28.72
212297,-0.22,-0.78,-0.48,-40.05,-6.37,-1.21,28.81
212307,-0.25,-0.77,-0.58,-40.43,-6.37,6.18,28.81
212317,-0.23,-0.75,-0.60,-38.80,2.79,14.88,28.77
212327,-0.22,-0.78,-0.63,-35.62,3.95,22.96,28.67
212337,-0.13,-0.79,-0.62,-40.55,3.51,26.84,28.72
212347,-0.05,-0.85,-0.53,-44.00,0.66,28.72,28.72
212357,0.04,-0.88,-0.46,-42.46,-1.79,26.33,28.67
212367,0.12,-0.92,-0.40,-36.79,3.15,19.94,28.77
212377,0.09,-0.92,-0.40,-26.93,7.79,12.21,28.72
212387,0.05,-0.89,-0.43,-18.88,11.46,10.44,28.72
212397,0.02,-0.88,-0.44,-17.20,14.15,7.60,28.81
212407,0.00,-0.86,-0.41,-15.18,9.79,5.37,28.67
212417,-0.01,-0.84,-0.38,-13.64,1.92,2.82,28.77
212427,-0.03,-0.81,-0.41,-11.37,-2.95,-2.34,28.62
212437,-0.09,-0.79,-0.45,-7.10,-2.63,-1.13,28.62
212447,-0.11,-0.79,-0.43,-3.85,1.72,3.11,28.77
212457,-0.09,-0.78,-0.44,6.54,7.27,7.08,28.58
212467,-0.00,-0.77,-0.51,8.81,13.76,8.59,28.72
212477,0.01,-0.78,-0.49,7.22,12.97,9.84,28.72
212487,0.09,-0.80,-0.50,6.05,8.83,5.58,28.77
212497,0.10,-0.81,-0.45,4.44,8.88,-2.42,28.77
212507,-0.01,-0.80,-0.39,6.97,7.92,-5.13,28.72
212517,-0.06,-0.82,-0.35,14.75,9.76,-2.79,28.72
212527,-0.08,-0.84,-0.29,19.31,11.89,-3.05,28.72
212537,-0.12,-0.83,-0.28,27.67,6.69,-2.08,28.77
212547,-0.09,-0.82,-0.38,35.47,7.21,1.52,28.77
212557,-0.04,-0.84,-0.44,41.26,16.22,3.21,28.72
212567,-0.03,-0.85,-0.43,45.55,22.11,2.25,28.72
212577,-0.06,-0.83,-0.41,43.34,18.30,-1.25,28.62
212587,-0.12,-0.81,-0.35,37.81,11.73,-4.27,28.58
212597,-0.19,-0.80,-0.28,34.27,2.27,-3.02,28.62
212607,-0.28,-0.84,-0.14,33.81,-1.05,2.17,28.72
212617,-0.29,-0.90,0.04,48.53,-5.71,10.39,28.67
212627,-0.20,-0.95,0.00,72.02,-0.36,13.82,28.67
212637,-0.15,-0.97,-0.11,87.22,2.91,11.45,28.67
212647,-0.16,-1.00,-0.19,99.06,5.11,8.00,28.72
212657,-0.22,-1.01,-0.25,101.91,-0.60,7.17,28.72
212667,-0.20,-1.03,-0.30,106.87,-5.69,5.89,28.67
212677,-0.30,-1.08,-0.37,109.57,-5.51,6.85,28.67
212687,-0.23,-1.08,-0.49,110.31,-6.21,6.78,28.72
212697,-0.25,-1.11,-0.47,105.79,-2.98,6.15,28.62
212707,-0.17,-1.07,-0.53,101.20,5.77,11.30,28.67
212717,-0.14,-1.10,-0.47,94.32,4.55,8.31,28.67
212727,-0.15,-1.09,-0.42,93.69,17.76,7.90,28.72
212737,-0.22,-1.10,-0.33,97.53,12.53,7.82,28.72
212747,-0.28,-1.07,-0.28,101.16,3.11,8.76,28.62
212757,-0.36,-1.04,-0.27,107.02,-14.91,13.44,28.77
212767,-0.32,-1.07,-0.31,115.59,-25.92,21.74,28.67
212777,-0.22,-1.07,-0.45,127.40,-21.76,27.77,28.62
212787,-0.14,-1.05,-0.57,129.56,-13.65,31.61,28.62
212797,-0.06,-1.08,-0.64,118.99,-1.96,32.97,28.67
212807,-0.03,-1.08,-0.54,105.75,-1.03,29.96,28.67
212817,-0.06,-1.10,-0.43,94.53,-10.56,25.67,28.72
212827,-0.07,-1.12,-0.27,88.76,-19.36,24.06,28.72
212837,-0.09,-1.15,-0.14,98.82,-31.34,24.61,28.67
212847,0.04,-1.16,-0.20,119.32,-31.69,22.75,28.67
212857,0.14,-1.15,-0.40,132.45,-14.86,16.12,28.67
212867,0.14,-1.11,-0.49,126.77,5.05,10.34,28.62
212877,0.07,-1.09,-0.40,111.08,16.05,5.89,28.62
212887,-0.02,-1.08,-0.24,96.86,13.70,2.89,28.67
212897,-0.11,-1.09,-0.11,89.05,7.50,1.68,28.77
212907,-0.23,-1.10,0.07,87.86,-5.07,4.12,28.72
212917,-0.29,-1.12,0.23,98.52,-30.08,12.11,28.72
212927,-0.15,-1.15,0.14,123.10,-51.69,13.09,28.62
212937,-0.00,-1.16,-0.18,140.72,-39.98,10.81,28.67
212947,0.05,-1.12,-0.39,144.27,-6.70,9.32,28.77
212957,0.01,-1.11,-0.37,136.82,33.79,12.05,28.72
212967,-0.11,-1.10,-0.19,130.37,59.42,17.70,28.62
212977,-0.15,-1.11,-0.03,131.79,64.62,21.94,28.67
212987,-0.12,-1.12,-0.04,135.70,51.31,21.70,28.67
212997,-0.07,-1.11,-0.09,132.47,33.79,17.70,28.72
213007,-0.04,-1.10,-0.12,131.20,6.57,10.66,28.72
213017,-0.01,-1.08,-0.15,124.35,-11.08,5.06,28.67
213027,0.02,-1.10,-0.18,116.40,-10.09,0.27,28.67
213037,-0.03,-1.13,-0.08,107.98,5.77,1.15,28.62
213047,-0.04,-1.17,0.12,103.60,17.48,0.27,28.72
213057,-0.04,-1.20,0.27,110.32,19.79,-2.58,28.72
213067,-0.08,-1.23,0.33,117.72,7.40,-4.60,28.67
213077,-0.06,-1.22,0.32,127.09,-5.21,-6.69,28.67
213087,-0.04,-1.24,0.33,138.85,-17.98,-10.44,28.62
213097,-0.01,-1.22,0.27,147.06,-25.06,-19.20,28.81
213107,-0.02,-1.17,0.16,151.69,-26.82,-29.37,28.72
213117,-0.08,-1.10,0.06,146.92,-26.86,-36.43,28.58
213127,-0.15,-1.05,0.05,137.18,-22.86,-36.93,28.62
213137,-0.22,-1.04,0.11,130.11,-18.58,-33.02,28.72
213147,-0.25,-1.02,0.18,127.51,-16.41,-28.08,28.62
213157,-0.21,-1.05,0.21,126.31,-9.79,-24.21,28.67
213167,-0.16,-1.06,0.30,120.31,-7.31,-23.21,28.67
213177,-0.19,-1.08,0.43,116.89,-20.38,-26.46,28.72
213187,-0.22,-1.10,0.50,118.52,-36.18,-28.49,28.62
213197,-0.21,-1.07,0.50,124.95,-40.34,-27.99,28.67
213207,-0.23,-1.06,0.47,134.59,-38.80,-26.26,28.58
213217,-0.19,-1.02,0.43,137.76,-31.15,-24.73,28.62
213227,-0.22,-1.00,0.45,133.41,-25.75,-21.80,28.72
213237,-0.22,-1.00,0.49,130.70,-28.54,-18.53,28.53
213247,-0.17,-0.99,0.50,131.24,-32.73,-15.89,28.77
213257,-0.11,-0.99,0.45,131.88,-35.88,-15.43,28.58
213267,-0.05,-0.97,0.41,132.03,-38.25,-17.46,28.72
213277,-0.00,-0.95,0.38,127.58,-39.04,-21.53,28.62
213287,0.00,-0.91,0.41,119.21,-39.42,-27.24,28.62
213297,-0.04,-0.90,0.49,112.12,-36.99,-31.32,28.67
213307,-0.08,-0.89,0.59,107.01,-33.18,-31.42,28.67
213317,-0.11,-0.86,0.65,105.60,-29.18,-28.66,28.62
213327,-0.11,-0.85,0.69,108.98,-25.61,-23.94,28.72
213337,-0.06,-0.85,0.68,114.56,-22.71,-20.92,28.48
213347,-0.01,-0.84,0.65,119.46,-22.25,-21.31,28.58
213357,0.01,-0.81,0.62,117.18,-20.02,-24.03,28.62
213367,-0.01,-0.78,0.63,113.63,-23.83,-27.12,28.72
213377,-0.02,-0.75,0.64,111.06,-23.07,-27.89,28.67
213387,-0.01,-0.73,0.62,107.67,-19.44,-26.79,28.77
213397,0.01,-0.71,0.62,104.10,-10.44,-25.51,28.67
213407,0.00,-0.70,0.66,99.66,-1.49,-22.64,28.62
213417,-0.02,-0.69,0.74,96.98,0.17,-20.98,28.53
213427,-0.02,-0.69,0.78,98.55,-9.14,-19.55,28.67
213437,-0.01,-0.67,0.75,98.67,-15.79,-17.21,28.67
213447,0.04,-0.66,0.73,101.27,-20.06,-17.11,28.62
213457,0.07,-0.64,0.70,100.05,-20.31,-18.74,28.62
213467,0.07,-0.61,0.66,96.89,-18.04,-20.60,28.72
213477,0.10,-0.58,0.62,91.99,-12.05,-21.85,28.67
213487,0.09,-0.54,0.60,83.60,-7.49,-23.79,28.58
213497,0.08,-0.53,0.59,76.90,1.44,-25.08,28.62
213507,0.05,-0.49,0.60,71.15,5.21,-26.21,28.62
213517,0.03,-0.49,0.63,67.10,12.35,-25.73,28.58
213527,0.02,-0.48,0.68,66.80,8.34,-24.62,28.67
213537,0.03,-0.46,0.67,66.15,6.68,-21.78,28.62
213547,0.03,-0.46,0.68,65.10,4.04,-21.56,28.62
213557,0.06,-0.44,0.68,65.49,2.45,-21.53,28.67
213567,0.09,-0.43,0.66,62.37,1.24,-23.34,28.67
213577,0.11,-0.41,0.64,57.74,3.18,-25.83,28.72
213587,0.11,-0.40,0.63,51.68,6.15,-27.23,28.62
213597,0.10,-0.38,0.67,45.43,8.39,-28.40,28.62
213607,0.07,-0.38,0.70,40.59,8.50,-29.17,28.67
213617,0.05,-0.36,0.72,36.94,8.41,-28.20,28.67
213627,0.04,-0.36,0.75,36.89,7.45,-27.17,28.53
213637,0.02,-0.35,0.75,38.73,5.09,-26.06,28.53
213647,0.05,-0.34,0.75,39.56,6.54,-24.40,28.62
213657,0.09,-0.34,0.73,39.85,9.11,-24.02,28.67
213667,0.09,-0.34,0.73,37.98,12.24,-23.85,28.72
213677,0.07,-0.33,0.75,34.94,15.40,-23.18,28.62
213687,0.06,-0.32,0.78,33.37,11.23,-22.02,28.67
213697,0.06,-0.33,0.79,32.02,5.11,-20.21,28.67
213707,0.07,-0.33,0.79,31.05,-0.18,-20.06,28.58
213717,0.07,-0.33,0.81,30.33,-6.76,-20.92,28.62
213727,0.06,-0.32,0.81,27.63,-12.32,-21.66,28.62
213737,0.05,-0.32,0.81,24.90,-14.03,-19.76,28.67
213747,0.08,-0.32,0.79,24.28,-9.31,-17.05,28.67
213757,0.13,-0.33,0.78,24.14,3.53,-14.86,28.72
213767,0.13,-0.32,0.82,22.08,16.74,-14.21,28.72
213777,0.11,-0.33,0.86,23.29,21.68,-14.03,28.67
213787,0.11,-0.34,0.90,25.60,20.01,-12.88,28.67
213797,0.13,-0.34,0.90,25.65,14.44,-13.96,28.62
213807,0.14,-0.33,0.89,25.85,6.89,-16.99,28.62
213817,0.14,-0.32,0.87,23.55,0.27,-20.26,28.62
213827,0.13,-0.31,0.86,20.79,-4.59,-24.64,28.58
213837,0.10,-0.30,0.87,18.98,-8.32,-27.52,28.77
213847,0.07,-0.28,0.90,19.73,-13.52,-29.27,28.62
213857,0.05,-0.27,0.91,22.89,-17.42,-28.01,28.62
213867,0.04,-0.25,0.90,25.12,-19.51,-25.78,28.58
213877,0.08,-0.26,0.87,27.21,-14.07,-23.85,28.67
213887,0.11,-0.26,0.87,26.24,-4.21,-22.55,28.62
213897,0.11,-0.26,0.89,25.79,4.13,-23.38,28.62
213907,0.08,-0.26,0.93,28.87,4.40,-22.51,28.67
213917,0.04,-0.26,1.00,38.63,-9.08,-21.23,28.58
213927,0.07,-0.26,1.03,50.27,-26.35,-22.21,28.72
213937,0.06,-0.27,1.05,67.46,-51.33,-23.07,28.72
213947,0.07,-0.24,0.99,77.56,-69.24,-21.62,28.72
213957,0.11,-0.20,0.90,81.98,-68.95,-21.36,28.67
213967,0.16,-0.19,0.84,80.53,-47.21,-21.95,28.67
213977,0.17,-0.18,0.79,73.31,-30.91,-23.18,28.72
213987,0.21,-0.15,0.77,64.42,-6.27,-21.52,28.62
213997,0.16,-0.16,0.86,54.76,0.06,-23.34,28.62
214007,0.17,-0.15,0.86,48.82,2.53,-26.59,28.67
214017,0.13,-0.14,0.86,47.36,-2.01,-25.98,28.62
214027,0.10,-0.13,0.87,47.95,-8.21,-27.48,28.53
214037,0.08,-0.11,0.81,46.17,-11.79,-27.30,28.77
214047,0.11,-0.11,0.80,44.18,-6.73,-28.07,28.67
214057,0.11,-0.09,0.74,38.69,-0.84,-25.57,28.62
214067,0.10,-0.09,0.78,34.69,1.73,-23.84,28.72
214077,0.10,-0.08,0.76,30.11,6.27,-20.37,28.62
214087,0.11,-0.08,0.81,26.36,5.30,-21.38,28.67
214097,0.16,-0.09,0.79,24.94,12.16,-21.89,28.67
214107,0.13,-0.08,0.83,21.88,11.94,-24.31,28.62
214117,0.14,-0.08,0.83,21.56,15.27,-25.66,28.72
214127,0.10,-0.07,0.86,21.27,11.45,-26.93,28.58
214137,0.08,-0.05,0.84,19.60,6.50,-27.04,28.67
214147,0.07,-0.04,0.84,18.64,5.97,-25.07,28.62
214157,0.06,-0.03,0.81,16.82,9.08,-21.85,28.62
214167,0.07,-0.02,0.78,14.11,15.11,-19.34,28.62
214177,0.09,-0.01,0.76,9.31,25.95,-16.07,28.67
214187,0.07,-0.01,0.82,5.83,29.72,-13.90,28.67
214197,0.06,-0.01,0.86,5.05,27.47,-12.89,28.62
214207,0.06,-0.01,0.89,5.67,23.82,-12.16,28.62
214217,0.06,-0.02,0.92,9.11,15.11,-13.21,28.77
214227,0.06,-0.02,0.92,12.79,9.43,-14.15,28.67
214237,0.06,-0.01,0.91,14.02,3.87,-15.39,28.62
214247,0.08,-0.00,0.88,13.82,2.69,-15.71,28.62
214257,0.07,0.01,0.86,12.08,5.82,-15.23,28.67
214267,0.05,0.02,0.86,9.97,8.81,-13.38,28.58
214277,0.04,0.02,0.88,9.51,8.37,-11.07,28.72
214287,0.04,0.02,0.89,10.57,7.79,-8.26,28.62
214297,0.05,0.01,0.91,13.44,5.53,-6.18,28.67
214307,0.08,0.01,0.88,15.74,8.82,-3.28,28.58
214317,0.11,0.00,0.88,16.09,10.82,-3.40,28.67
214327,0.13,0.00,0.90,15.62,16.69,-3.47,28.62
214337,0.12,-0.00,0.91,14.80,18.42,-3.75,28.72
214347,0.12,0.00,0.91,15.19,16.33,-4.64,28.62
214357,0.12,0.01,0.92,15.36,14.40,-6.16,28.67
214367,0.09,0.02,0.90,16.33,6.08,-9.23,28.62
214377,0.07,0.03,0.87,15.27,0.83,-10.44,28.62
214387,0.07,0.04,0.85,13.52,-5.50,-10.96,28.67
214397,0.07,0.05,0.82,10.21,-7.27,-9.91,28.77
214407,0.06,0.05,0.80,6.81,-7.28,-7.95,28.67
214417,0.07,0.05,0.79,5.66,-8.90,-7.88,28.62
214427,0.08,0.04,0.81,3.98,-7.32,-8.03,28.72
214437,0.08,0.03,0.81,3.79,-6.06,-6.36,28.67
214447,0.06,0.04,0.84,5.52,-10.38,-7.21,28.67
214457,0.11,0.03,0.83,7.29,-5.20,-6.88,28.62
214467,0.09,0.04,0.85,10.55,-9.71,-9.28,28.62
214477,0.10,0.04,0.82,11.88,-7.39,-9.95,28.58
214487,0.09,0.06,0.81,11.42,-9.11,-11.54,28.67
214497,0.08,0.06,0.81,11.87,-8.09,-12.24,28.67
214507,0.07,0.07,0.79,11.16,-8.79,-12.32,28.62
214517,0.06,0.08,0.78,9.76,-9.01,-11.20,28.62
214527,0.05,0.08,0.78,7.59,-9.45,-9.56,28.62
214537,0.05,0.08,0.79,5.48,-10.25,-8.44,28.67
214547,0.05,0.08,0.81,4.40,-11.03,-7.53,28.72
214557,0.06,0.06,0.82,4.74,-12.52,-6.70,28.62
214567,0.08,0.06,0.81,4.55,-10.80,-6.02,28.67
214577,0.08,0.06,0.83,4.47,-8.60,-5.63,28.67
214587,0.08,0.06,0.85,5.64,-7.11,-5.58,28.58
214597,0.09,0.06,0.86,6.89,-7.18,-5.72,28.62
214607,0.09,0.06,0.83,7.21,-6.85,-5.29,28.62
214617,0.09,0.07,0.81,6.27,-5.85,-4.79,28.67
214627,0.08,0.08,0.80,5.94,-3.85,-3.94,28.58
214637,0.08,0.08,0.78,4.68,-0.87,-3.03,28.53
214647,0.07,0.08,0.79,2.39,1.28,-1.54,28.62
214657,0.07,0.08,0.79,0.03,4.26,0.74,28.67
214667,0.07,0.07,0.79,-1.67,6.05,2.28,28.67
214677,0.09,0.06,0.81,-3.98,8.96,2.63,28.62
214687,0.10,0.05,0.85,-4.73,6.50,1.11,28.72
214697,0.09,0.03,0.90,-4.34,0.54,-0.46,28.53
214707,0.10,0.04,0.91,-3.85,-5.50,-2.13,28.67
214717,0.11,0.03,0.89,-3.36,-9.01,-3.98,28.67
214727,0.11,0.04,0.88,-3.53,-9.40,-4.53,28.62
214737,0.11,0.03,0.89,-4.07,-9.31,-4.95,28.62
214747,0.11,0.03,0.88,-6.56,-7.58,-4.53,28.67
214757,0.11,0.04,0.90,-8.13,-8.74,-4.55,28.58
214767,0.12,0.03,0.91,-7.87,-8.45,-4.97,28.62
214777,0.12,0.03,0.92,-6.76,-7.63,-4.59,28.62
214787,0.11,0.02,0.95,-5.35,-9.22,-5.57,28.67
214797,0.11,0.03,0.95,-4.20,-11.40,-6.24,28.58
214807,0.10,0.03,0.95,-2.95,-14.41,-6.42,28.62
214817,0.11,0.03,0.92,-1.50,-15.64,-6.20,28.72
214827,0.12,0.03,0.92,-0.49,-14.40,-6.03,28.62
214837,0.12,0.03,0.90,0.40,-12.34,-5.48,28.67
214847,0.12,0.03,0.89,-0.15,-8.85,-4.72,28.67
214857,0.12,0.04,0.91,0.11,-5.32,-3.76,28.62
214867,0.12,0.04,0.92,0.15,-2.40,-2.18,28.62
214877,0.12,0.02,0.91,1.56,-1.22,-0.96,28.72
214887,0.13,0.03,0.91,2.44,1.09,-0.71,28.67
214897,0.13,0.03,0.91,3.33,1.43,-0.95,28.62
214907,0.12,0.04,0.90,3.71,0.46,-0.97,28.62
214917,0.12,0.04,0.90,3.71,-1.79,-1.34,28.67
214927,0.13,0.04,0.89,2.60,-1.96,-0.92,28.67
214937,0.13,0.04,0.88,1.66,-1.68,-1.34,28.62
214947,0.14,0.03,0.87,1.21,0.34,-1.13,28.72
214957,0.11,0.03,0.90,0.36,-3.51,-1.60,28.62
214967,0.13,0.03,0.89,0.66,-2.49,-0.81,28.67
214977,0.12,0.03,0.88,0.50,-2.31,-0.52,28.67
214987,0.14,0.03,0.87,0.50,-0.51,-0.28,28.72
214997,0.14,0.02,0.88,0.52,0.92,-0.28,28.62
215007,0.13,0.02,0.88,0.09,2.00,-0.12,28.67
215017,0.12,0.03,0.89,-0.21,1.17,-0.40,28.67
215027,0.12,0.03,0.88,-1.00,0.43,-0.69,28.62
215037,0.12,0.03,0.86,-1.55,0.19,-0.18,28.62
215047,0.12,0.02,0.86,-2.40,1.98,0.92,28.72
215057,0.14,0.02,0.88,-3.36,4.26,0.88,28.67
215067,0.13,0.02,0.89,-2.67,4.77,-0.15,28.67
215077,0.13,0.02,0.92,-1.24,2.08,-0.91,28.62
215087,0.11,0.02,0.92,0.54,-2.05,-0.70,28.62
215097,0.10,0.02,0.91,1.08,-4.69,-0.20,28.67
215107,0.11,0.01,0.90,1.19,-4.92,-0.02,28.67
215117,0.12,0.01,0.90,0.15,-4.43,0.02,28.72
215127,0.12,0.02,0.92,-0.44,-4.95,0.21,28.62
215137,0.11,0.02,0.91,-0.65,-4.42,1.04,28.58
215147,0.11,0.01,0.90,-0.08,-3.18,1.33,28.67
215157,0.12,0.01,0.90,1.97,-2.10,2.19,28.72
215167,0.13,0.01,0.90,3.44,-2.64,2.87,28.62
215177,0.13,0.01,0.89,3.39,-2.38,3.12,28.72
215187,0.14,0.01,0.89,2.74,-0.72,3.05,28.77
215197,0.13,0.02,0.89,1.73,0.39,2.86,28.58
215207,0.13,0.02,0.89,1.03,0.51,2.77,28.72
215217,0.13,0.01,0.91,2.06,-0.73,2.98,28.72
215227,0.13,0.01,0.91,2.29,-2.32,3.44,28.62
215237,0.13,0.01,0.92,2.56,-1.71,3.68,28.67
215247,0.14,0.01,0.93,2.40,-0.34,3.84,28.62
215257,0.14,0.01,0.92,3.06,1.07,3.64,28.62
215267,0.15,0.00,0.92,2.76,2.85,3.31,28.58
215277,0.16,-0.00,0.92,3.36,3.13,1.98,28.67
215287,0.14,0.00,0.92,3.53,1.24,0.87,28.67
215297,0.14,0.01,0.92,3.71,-2.37,0.60,28.62
215307,0.14,0.01,0.90,3.08,-4.36,0.74,28.72
215317,0.15,0.01,0.89,2.34,-4.20,0.50,28.58
215327,0.15,0.01,0.89,1.56,-2.76,0.27,28.67
215337,0.14,0.02,0.90,1.05,-2.34,0.08,28.72
215347,0.14,0.02,0.89,0.10,-1.32,0.28,28.72
215357,0.13,0.01,0.90,0.39,-2.01,0.09,28.67
215367,0.13,0.02,0.89,1.06,-2.94,-0.05,28.67
215377,0.12,0.02,0.87,-0.23,-1.63,0.81,28.72
215387,0.13,0.02,0.88,-0.62,-0.70,1.27,28.72
215397,0.12,0.03,0.88,-1.14,0.75,1.91,28.72
215407,0.12,0.02,0.87,-1.63,1.54,2.02,28.58
215417,0.12,0.02,0.87,-2.27,2.96,2.56,28.67
215427,0.12,0.01,0.88,-2.38,3.24,3.00,28.72
215437,0.12,0.00,0.91,-1.97,2.96,4.09,28.62
215447,0.12,0.00,0.92,-0.77,1.54,4.21,28.58
215457,0.14,0.00,0.90,-0.62,0.45,3.69,28.67
215467,0.14,0.00,0.89,-0.57,-0.52,2.66,28.53
215477,0.13,0.00,0.89,-0.39,-0.64,2.26,28.72
215487,0.14,0.00,0.88,-0.62,-0.67,2.07,28.67
215497,0.14,0.01,0.89,-0.82,-0.21,1.82,28.67
215507,0.13,-0.00,0.90,-0.49,-0.29,2.50,28.72
215517,0.14,-0.00,0.92,-0.01,-0.37,3.09,28.62
215527,0.14,-0.00,0.92,0.47,-0.99,2.97,28.67
215537,0.14,-0.01,0.93,0.71,-0.95,2.49,28.67
215547,0.14,-0.00,0.91,1.13,-0.48,2.19,28.67
215557,0.14,-0.00,0.91,1.11,-0.08,2.01,28.72
215567,0.14,-0.00,0.91,1.44,0.45,1.74,28.62
215577,0.15,-0.00,0.92,2.12,0.09,1.26,28.62
215587,0.15,-0.01,0.91,2.03,0.80,1.21,28.77
215597,0.15,-0.01,0.91,2.01,-0.05,0.46,28.72
215607,0.16,-0.01,0.90,1.54,-1.37,0.48,28.72
215617,0.15,-0.00,0.90,1.36,-1.45,0.17,28.67
215627,0.15,-0.00,0.90,1.29,-0.74,0.25,28.67
215637,0.15,-0.00,0.90,1.61,0.16,-0.02,28.62
215647,0.16,-0.01,0.89,1.77,1.01,-0.53,28.62
215657,0.15,-0.00,0.89,1.00,0.35,-1.11,28.81
215667,0.14,-0.01,0.90,0.69,0.05,-1.48,28.58
215677,0.14,-0.00,0.91,0.85,-0.63,-1.70,28.67
215687,0.14,-0.00,0.91,0.85,-0.51,-1.66,28.62
215697,0.14,-0.00,0.89,0.43,0.15,-1.63,28.62
215707,0.13,-0.00,0.90,0.24,0.52,-2.05,28.77
215717,0.13,-0.00,0.90,-0.39,0.72,-2.40,28.67
215727,0.12,0.00,0.89,-0.53,0.72,-1.81,28.72
215737,0.12,-0.00,0.89,-0.17,0.85,-0.78,28.72
215747,0.12,-0.01,0.89,0.20,0.85,-0.77,28.72
215757,0.13,-0.00,0.88,0.04,1.34,-1.24,28.77
215767,0.12,-0.00,0.88,-0.85,2.29,-1.07,28.62
215777,0.11,-0.01,0.89,-1.17,2.96,-0.53,28.62
215787,0.11,-0.01,0.89,-1.73,4.14,0.60,28.62
215797,0.13,-0.02,0.90,-1.79,4.79,0.66,28.67
215807,0.13,-0.01,0.91,-2.03,4.73,0.02,28.67
215817,0.12,-0.01,0.90,-2.15,4.14,0.24,28.62
215827,0.12,-0.01,0.89,-1.71,4.40,0.97,28.72
215837,0.12,-0.02,0.90,-0.86,4.83,1.30,28.67
215847,0.12,-0.02,0.91,0.43,3.94,1.60,28.67
215857,0.13,-0.02,0.91,0.36,2.86,1.33,28.72
215867,0.13,-0.02,0.92,0.08,1.27,0.88,28.62
215877,0.13,-0.02,0.91,0.16,0.56,0.75,28.67
215887,0.13,-0.02,0.91,0.22,0.40,0.07,28.67
215897,0.12,-0.03,0.92,0.85,-0.82,-0.56,28.62
215907,0.12,-0.02,0.92,1.24,-1.61,-0.44,28.62
215917,0.12,-0.01,0.90,1.34,-1.65,-0.56,28.72
215927,0.12,-0.02,0.90,1.35,-1.23,-0.36,28.67
215937,0.12,-0.02,0.89,0.86,0.10,-0.18,28.72
215947,0.12,-0.01,0.89,0.44,1.05,-0.13,28.72
215957,0.13,-0.02,0.90,1.05,0.61,-0.22,28.62
215967,0.12,-0.02,0.88,1.09,-0.49,-0.28,28.77
215977,0.12,-0.01,0.87,0.50,-0.99,-0.02,28.67
215987,0.12,-0.02,0.88,-0.24,-0.20,0.33,28.72
215997,0.13,-0.02,0.90,-0.50,1.11,0.40,28.72
216007,0.13,-0.02,0.91,-0.47,1.11,-0.38,28.67
216017,0.13,-0.02,0.92,-0.19,1.45,-0.79,28.67
216027,0.12,-0.02,0.92,1.05,0.21,-0.91,28.72
216037,0.12,-0.03,0.91,1.01,-0.40,-0.70,28.62
216047,0.11,-0.02,0.92,1.28,-0.31,-0.65,28.67
216057,0.12,-0.02,0.90,1.28,0.51,-0.30,28.67
216067,0.11,-0.02,0.92,2.28,-0.34,-0.02,28.72
216077,0.12,-0.02,0.91,3.18,-1.16,-0.19,28.72
216087,0.13,-0.02,0.89,2.23,-1.01,-0.22,28.62
216097,0.13,-0.02,0.91,2.53,-0.45,-0.49,28.77
216107,0.12,-0.02,0.90,2.57,-0.34,-0.66,28.67
216117,0.12,-0.01,0.90,2.25,-0.16,-0.62,28.81
216127,0.12,-0.02,0.91,2.21,-0.76,-0.63,28.62
216137,0.12,-0.02,0.89,2.53,-0.56,-0.41,28.67
216147,0.12,-0.03,0.89,3.58,-0.48,-0.31,28.77
216157,0.14,-0.02,0.88,3.48,-0.15,-1.37,28.72
216167,0.13,-0.02,0.89,2.34,-1.11,-1.62,28.72
216177,0.13,-0.02,0.89,1.56,-1.73,-1.57,28.67
216187,0.13,-0.02,0.91,1.67,-2.27,-1.84,28.67
216197,0.13,-0.02,0.90,1.53,-1.73,-2.16,28.62
216207,0.12,-0.02,0.91,1.08,-0.34,-1.63,28.72
216217,0.12,-0.03,0.91,2.19,-0.14,-1.24,28.72
216227,0.12,-0.02,0.91,2.47,0.66,-1.24,28.67
216237,0.11,-0.02,0.92,2.64,-0.05,-1.37,28.67
216247,0.11,-0.02,0.90,2.90,-0.47,-1.16,28.62
