Timestamp,Acce_X,Acce_Y,Acce_Z,Gyro_X,Gyro_Y,Gyro_Z,Temp
36317,-0.03,0.16,0.87,-4.24,-0.24,-0.50,29.38
36327,-0.04,0.15,0.88,-5.07,0.47,0.15,29.38
36337,-0.04,0.15,0.89,-5.29,1.26,0.92,29.42
36347,-0.03,0.14,0.91,-5.67,0.21,0.98,29.42
36357,-0.02,0.14,0.91,-5.53,-1.56,0.41,29.38
36367,-0.03,0.15,0.91,-4.95,-2.69,0.48,29.47
36377,-0.03,0.15,0.91,-4.36,-3.17,0.95,29.52
36387,-0.04,0.15,0.92,-3.67,-4.48,1.40,29.42
36397,-0.04,0.15,0.93,-2.88,-4.36,1.79,29.38
36407,-0.04,0.15,0.93,-2.63,-4.94,2.70,29.47
36417,-0.04,0.16,0.94,-2.20,-5.78,3.53,29.42
36427,-0.04,0.15,0.95,-0.95,-7.55,4.22,29.42
36437,-0.04,0.14,0.97,0.63,-10.33,5.15,29.38
36447,-0.02,0.15,0.95,1.53,-12.12,5.53,29.47
36457,-0.01,0.15,0.94,1.54,-13.52,5.76,29.42
36467,0.00,0.15,0.96,2.11,-16.05,5.29,29.42
36477,0.00,0.16,0.98,2.27,-25.63,2.11,29.47
36487,-0.00,0.16,0.88,-1.02,-32.35,3.50,29.47
36497,0.04,0.15,0.89,-0.17,-20.20,6.72,29.47
36507,0.05,0.15,0.88,0.43,-2.70,8.03,29.42
36517,0.03,0.15,0.88,-3.01,1.37,9.73,29.42
36527,0.05,0.13,0.85,-10.21,7.50,11.39,29.47
36537,0.04,0.12,0.87,-13.19,10.68,12.57,29.38
36547,0.04,0.14,0.79,-17.21,14.88,13.71,29.42
36557,0.00,0.17,0.69,-30.85,18.89,15.17,29.52
36567,0.05,0.19,0.61,-49.04,11.89,11.85,29.47
36577,-0.04,0.17,0.55,-66.50,1.12,12.90,29.38
36587,-0.03,0.17,0.59,-77.98,-7.71,12.02,29.52
36597,-0.03,0.20,0.51,-85.21,-6.11,12.24,29.42
36607,-0.02,0.21,0.41,-92.69,9.10,10.87,29.47
36617,-0.20,0.28,0.30,-93.31,16.26,15.92,29.47
36627,-0.22,0.29,0.13,-93.75,34.05,28.67,29.52
36637,-0.16,0.17,0.00,-102.75,53.89,39.71,29.42
36647,0.02,-0.07,-0.08,-96.31,79.21,28.45,29.38
36657,0.09,-0.03,-0.18,-132.03,100.80,27.18,29.38
36667,0.07,-0.08,-0.12,-140.92,100.22,17.07,29.38
36677,0.05,-0.13,-0.23,-152.08,89.99,7.87,29.42
36687,0.03,-0.11,-0.33,-162.53,80.72,2.88,29.42
36697,-0.04,-0.25,-0.38,-181.32,78.37,2.35,29.47
36707,-0.04,-0.36,-0.26,-197.70,74.41,-1.20,29.38
36717,-0.13,-0.48,-0.07,-207.05,58.33,-2.91,29.42
36727,-0.13,-0.59,0.02,-213.43,44.98,-0.92,29.42
36737,-0.07,-0.75,0.13,-214.42,43.14,-0.81,29.38
36747,-0.03,-0.88,0.24,-210.87,48.18,-6.47,29.38
36757,-0.08,-0.93,0.33,-208.65,53.24,-8.60,29.52
36767,-0.10,-1.00,0.44,-204.29,47.84,-9.54,29.42
36777,-0.05,-1.06,0.49,-199.31,42.73,-12.90,29.47
36787,-0.00,-1.15,0.58,-189.92,42.69,-18.80,29.38
36797,0.04,-1.22,0.70,-164.39,50.84,-25.31,29.42
36807,0.03,-1.24,0.72,-144.13,69.74,-29.34,29.42
36817,0.02,-1.27,0.74,-127.46,82.12,-36.26,29.38
36827,-0.06,-1.26,0.81,-117.57,72.01,-47.67,29.47
36837,-0.16,-1.22,0.81,-119.03,49.42,-55.59,29.42
36847,-0.22,-1.18,0.72,-119.82,23.73,-61.65,29.52
36857,-0.33,-1.13,0.74,-116.41,7.18,-58.87,29.47
36867,-0.37,-1.13,0.90,-99.01,-20.94,-50.48,29.38
36877,-0.30,-1.09,0.81,-84.90,-41.21,-43.44,29.52
36887,-0.28,-1.05,0.64,-80.38,-41.73,-35.27,29.42
36897,-0.27,-1.01,0.53,-77.94,-43.54,-27.79,29.38
36907,-0.26,-0.94,0.37,-82.71,-43.02,-18.53,29.38
36917,-0.20,-0.96,0.28,-100.37,-45.31,-8.80,29.42
36927,-0.11,-0.99,0.27,-122.47,-49.46,-7.55,29.42
36937,-0.08,-1.02,0.34,-144.06,-58.85,-8.08,29.47
36947,-0.09,-1.04,0.38,-160.41,-65.47,-6.73,29.38
36957,-0.15,-1.05,0.37,-168.60,-70.99,0.37,29.42
36967,-0.10,-1.09,0.32,-172.29,-65.27,13.24,29.42
36977,0.03,-1.18,0.25,-181.29,-47.11,21.43,29.38
36987,0.12,-1.27,0.33,-194.47,-38.96,19.96,29.38
36997,0.13,-1.31,0.44,-207.76,-36.18,19.41,29.38
37007,0.18,-1.38,0.50,-209.24,-36.60,20.09,29.52
37017,0.25,-1.40,0.46,-208.17,-32.91,14.71,29.38
37027,0.25,-1.44,0.43,-205.44,-24.60,8.93,29.38
37037,0.28,-1.49,0.41,-203.79,-21.55,2.33,29.42
37047,0.27,-1.55,0.45,-208.75,-21.93,-7.23,29.42
37057,0.22,-1.58,0.55,-210.76,-28.97,-15.49,29.38
37067,0.17,-1.61,0.61,-210.06,-31.25,-21.33,29.38
37077,0.12,-1.60,0.61,-205.12,-29.56,-25.94,29.42
37087,0.08,-1.59,0.59,-196.37,-19.89,-29.02,29.42
37097,0.00,-1.57,0.59,-190.39,-14.99,-30.83,29.38
37107,-0.07,-1.57,0.65,-180.85,-17.51,-33.19,29.38
37117,-0.08,-1.56,0.66,-164.20,-20.24,-34.87,29.42
37127,-0.10,-1.53,0.59,-147.78,-17.08,-35.77,29.42
37137,-0.13,-1.47,0.51,-137.98,-15.37,-38.53,29.38
37147,-0.25,-1.39,0.48,-132.73,-20.50,-38.44,29.38
37157,-0.30,-1.35,0.40,-125.11,-29.76,-31.82,29.47
37167,-0.22,-1.35,0.25,-118.63,-28.64,-28.69,29.42
37177,-0.19,-1.33,0.18,-115.70,-23.60,-29.97,29.38
37187,-0.23,-1.29,0.15,-113.65,-25.62,-30.58,29.38
37197,-0.28,-1.25,0.10,-114.28,-30.87,-27.19,29.42
37207,-0.26,-1.26,0.07,-112.86,-35.69,-24.63,29.42
37217,-0.22,-1.25,0.04,-110.61,-37.70,-23.01,29.42
37227,-0.23,-1.25,0.04,-109.03,-38.92,-19.81,29.38
37237,-0.18,-1.25,0.06,-106.08,-37.06,-14.89,29.47
37247,-0.11,-1.26,0.10,-99.02,-35.19,-12.47,29.42
37257,-0.18,-1.24,0.10,-94.98,-39.80,-10.76,29.42
37267,-0.09,-1.21,0.01,-89.81,-35.52,-11.05,29.38
37277,-0.07,-1.20,-0.02,-86.17,-37.02,-8.86,29.38
37287,-0.06,-1.16,-0.07,-84.90,-42.11,-7.18,29.33
37297,0.01,-1.16,-0.12,-85.56,-41.52,-8.21,29.42
37307,0.02,-1.13,-0.10,-88.96,-39.18,-9.64,29.47
37317,-0.01,-1.10,-0.01,-90.53,-41.51,-11.60,29.38
37327,-0.02,-1.07,0.08,-87.38,-40.99,-11.69,29.33
37337,-0.08,-1.04,0.15,-79.78,-41.23,-11.34,29.33
37347,-0.15,-0.99,0.11,-67.93,-39.39,-10.25,29.38
37357,-0.21,-0.98,0.04,-60.13,-35.49,-1.66,29.47
37367,-0.19,-0.97,0.01,-51.81,-39.10,4.79,29.33
37377,-0.13,-0.95,-0.08,-50.50,-40.08,9.21,29.42
37387,-0.06,-0.91,-0.13,-52.30,-40.35,11.21,29.38
37397,-0.08,-0.93,-0.13,-53.03,-39.21,11.80,29.47
37407,-0.06,-0.95,-0.08,-49.87,-39.09,14.60,29.33
37417,-0.02,-0.98,-0.06,-40.33,-41.37,16.62,29.42
37427,0.07,-1.00,-0.10,-34.68,-41.18,14.68,29.47
37437,0.13,-0.99,-0.16,-31.50,-36.91,8.76,29.38
37447,0.13,-0.97,-0.22,-31.79,-30.98,3.47,29.42
37457,0.09,-0.94,-0.20,-34.82,-27.01,-0.37,29.33
37467,0.05,-0.93,-0.15,-33.44,-25.63,-1.60,29.38
37477,0.03,-0.94,-0.13,-28.43,-20.56,-0.27,29.38
37487,0.05,-0.92,-0.18,-23.20,-13.21,-1.15,29.38
37497,0.04,-0.90,-0.24,-22.28,-9.21,-1.48,29.52
37507,0.02,-0.88,-0.27,-24.71,-7.24,-3.31,29.38
37517,-0.01,-0.86,-0.29,-26.28,-7.13,-3.13,29.28
37527,-0.02,-0.86,-0.29,-25.73,-5.14,-0.61,29.33
37537,0.00,-0.88,-0.29,-25.11,-1.67,0.82,29.42
37547,0.03,-0.89,-0.30,-24.17,0.34,1.15,29.38
37557,0.03,-0.91,-0.33,-22.29,1.78,-1.17,29.47
37567,0.12,-0.90,-0.34,-22.35,14.15,-5.23,29.42
37577,0.06,-0.88,-0.27,-26.18,8.94,-10.52,29.24
37587,0.00,-0.87,-0.22,-21.62,4.58,-10.41,29.38
37597,-0.01,-0.86,-0.23,-15.36,4.80,-8.82,29.47
37607,0.00,-0.86,-0.26,-9.60,6.34,-9.51,29.42
37617,-0.01,-0.87,-0.27,-7.88,9.28,-9.24,29.42
37627,-0.03,-0.87,-0.25,-7.24,9.88,-9.22,29.38
37637,-0.06,-0.89,-0.18,-4.18,5.34,-6.92,29.38
37647,-0.02,-0.89,-0.22,5.10,2.72,-5.72,29.38
37657,-0.01,-0.89,-0.26,8.53,-0.96,-7.76,29.33
37667,-0.01,-0.88,-0.29,8.02,-6.51,-9.10,29.42
37677,-0.00,-0.88,-0.29,9.24,-9.26,-11.39,29.38
37687,-0.03,-0.89,-0.30,10.40,-6.06,-13.03,29.47
37697,-0.07,-0.89,-0.27,14.44,2.26,-11.29,29.42
37707,-0.11,-0.90,-0.22,20.54,8.27,-8.02,29.42
37717,-0.14,-0.89,-0.21,24.53,8.85,-5.34,29.38
37727,-0.17,-0.89,-0.19,26.72,0.12,-1.85,29.47
37737,-0.13,-0.91,-0.20,32.23,-8.88,0.73,29.33
37747,-0.05,-0.93,-0.26,40.13,-13.99,0.95,29.42
37757,-0.05,-0.91,-0.34,42.34,-11.51,-1.28,29.38
37767,-0.09,-0.90,-0.33,40.43,-3.16,-3.71,29.38
37777,-0.17,-0.90,-0.25,38.41,2.02,-0.98,29.33
37787,-0.19,-0.93,-0.16,42.69,3.31,5.16,29.33
37797,-0.16,-0.96,-0.15,49.63,0.66,9.12,29.38
37807,-0.12,-0.96,-0.25,55.22,-4.82,10.65,29.38
37817,-0.08,-0.96,-0.36,58.73,-8.98,12.24,29.38
37827,-0.02,-0.98,-0.44,58.37,-8.79,11.52,29.33
37837,0.00,-0.98,-0.46,55.10,-6.18,9.91,29.38
37847,0.01,-1.00,-0.43,52.80,-4.21,9.00,29.38
37857,0.06,-0.95,-0.45,52.50,1.44,6.98,29.42
37867,0.06,-1.01,-0.49,50.53,4.24,5.49,29.42
37877,0.02,-1.00,-0.47,48.95,-0.63,0.95,29.38
37887,0.04,-0.99,-0.49,45.31,2.41,-2.28,29.38
37897,-0.02,-0.99,-0.49,41.60,0.01,-3.71,29.33
37907,-0.05,-0.99,-0.48,38.28,5.33,-2.63,29.42
37917,-0.05,-1.01,-0.43,38.30,7.27,-1.92,29.38
37927,-0.05,-1.00,-0.43,38.51,4.09,-1.30,29.38
37937,-0.04,-1.00,-0.43,36.33,-0.56,-2.03,29.42
37947,-0.04,-0.99,-0.41,33.85,-6.74,-4.39,29.42
37957,-0.08,-0.98,-0.36,32.83,-12.02,-5.00,29.38
37967,-0.10,-0.97,-0.34,35.11,-12.98,-2.08,29.38
37977,-0.08,-0.99,-0.33,38.15,-9.89,1.27,29.38
37987,-0.07,-0.98,-0.31,39.61,-8.69,1.80,29.33
37997,-0.07,-0.97,-0.30,37.76,-10.22,1.79,29.33
38007,-0.08,-0.97,-0.29,36.65,-16.39,1.55,29.28
38017,-0.10,-0.95,-0.27,35.39,-21.73,0.73,29.38
38027,-0.16,-0.96,-0.21,37.24,-28.65,3.06,29.33
38037,-0.16,-0.95,-0.22,42.53,-31.31,6.47,29.33
38047,-0.14,-0.95,-0.25,43.66,-32.37,10.62,29.38
38057,-0.07,-0.96,-0.28,45.66,-31.69,11.92,29.38
38067,-0.01,-0.98,-0.28,42.96,-24.26,9.73,29.33
38077,-0.03,-0.99,-0.22,39.83,-17.73,7.78,29.42
38087,-0.03,-1.00,-0.10,41.68,-14.56,5.98,29.28
38097,-0.06,-1.04,-0.01,46.35,-15.57,5.76,29.47
38107,-0.01,-1.05,-0.00,58.69,-21.85,5.24,29.33
38117,0.05,-1.04,-0.17,67.19,-18.28,2.85,29.33
38127,0.11,-1.05,-0.29,67.03,-4.46,-2.37,29.38
38137,0.11,-1.06,-0.28,60.11,12.03,-9.91,29.47
38147,0.08,-1.10,-0.15,49.98,30.54,-16.04,29.38
38157,-0.00,-1.10,0.06,47.39,33.22,-22.15,29.33
38167,-0.12,-1.06,0.20,51.60,25.84,-24.51,29.38
38177,-0.24,-1.08,0.26,63.74,5.21,-14.11,29.38
38187,-0.16,-1.05,0.22,93.49,-14.47,-3.68,29.42
38197,-0.05,-1.05,-0.00,116.93,-18.64,3.20,29.42
38207,0.06,-1.05,-0.14,127.01,-17.67,3.47,29.38
38217,0.11,-1.05,-0.18,125.78,-22.28,-4.05,29.38
38227,0.11,-1.05,-0.19,115.12,-26.17,-11.71,29.33
38237,0.08,-1.03,-0.12,105.86,-26.59,-17.69,29.33
38247,0.00,-1.01,0.01,101.08,-25.45,-21.94,29.33
38257,-0.11,-0.98,0.13,98.98,-23.72,-21.64,29.38
38267,-0.16,-1.02,0.21,103.56,-22.37,-11.08,29.28
38277,-0.04,-1.03,0.15,117.80,-20.33,-7.03,29.42
38287,0.03,-1.01,-0.04,119.60,-11.05,-9.31,29.24
38297,0.06,-1.00,-0.10,110.05,-1.11,-15.05,29.38
38307,0.01,-1.00,-0.01,99.05,-0.27,-20.47,29.38
38317,-0.06,-0.99,0.10,93.77,5.76,-19.93,29.33
38327,-0.12,-0.98,0.18,95.15,9.93,-15.98,29.33
38337,-0.15,-0.96,0.25,94.31,10.70,-10.38,29.38
38347,-0.19,-0.98,0.32,94.93,0.75,-1.71,29.38
38357,-0.11,-0.99,0.31,100.34,-13.82,4.30,29.33
38367,-0.02,-0.98,0.25,105.51,-20.43,6.07,29.33
38377,0.08,-0.98,0.20,105.08,-19.85,2.50,29.38
38387,0.10,-1.00,0.26,101.96,-16.34,-6.50,29.28
38397,0.07,-1.01,0.37,99.32,-9.92,-14.95,29.33
38407,-0.01,-0.99,0.54,98.82,-3.02,-16.47,29.33
38417,-0.12,-0.99,0.63,102.28,-1.80,-11.40,29.38
38427,-0.15,-1.03,0.71,111.53,-13.25,-2.67,29.28
38437,-0.10,-1.04,0.62,121.66,-27.45,3.13,29.42
38447,-0.03,-1.03,0.53,124.71,-39.24,4.67,29.33
38457,0.02,-1.02,0.47,125.69,-42.95,3.61,29.38
38467,0.03,-1.01,0.51,123.69,-41.49,-0.59,29.28
38477,0.02,-1.02,0.55,124.07,-36.37,-3.60,29.38
38487,-0.01,-1.01,0.66,126.57,-31.52,-4.63,29.24
38497,-0.07,-1.04,0.74,135.91,-33.81,-0.69,29.28
38507,-0.05,-1.10,0.67,151.66,-42.05,4.99,29.28
38517,0.03,-1.09,0.45,160.86,-46.73,5.60,29.33
38527,0.16,-1.05,0.21,159.20,-37.58,1.98,29.24
38537,0.27,-1.02,0.09,149.62,-27.20,-9.39,29.28
38547,0.29,-1.00,0.09,131.43,-15.07,-22.20,29.28
38557,0.23,-0.97,0.15,115.14,0.08,-34.71,29.33
38567,0.12,-0.95,0.27,105.58,9.64,-41.58,29.24
38577,0.03,-0.93,0.37,98.71,22.82,-41.73,29.38
38587,-0.07,-0.92,0.49,100.24,30.97,-36.24,29.28
38597,-0.10,-0.92,0.54,106.85,24.47,-25.78,29.24
38607,-0.03,-0.91,0.47,114.75,7.62,-19.82,29.33
38617,0.09,-0.89,0.32,109.27,-4.86,-20.63,29.33
38627,0.16,-0.85,0.25,98.11,-13.69,-27.50,29.38
38637,0.18,-0.82,0.22,84.27,-10.26,-36.45,29.47
38647,0.13,-0.80,0.27,75.60,2.03,-42.21,29.33
38657,0.06,-0.77,0.33,67.58,17.50,-43.69,29.24
38667,0.02,-0.76,0.39,60.63,32.01,-41.79,29.38
38677,-0.02,-0.73,0.45,56.54,38.17,-40.66,29.28
38687,-0.06,-0.70,0.47,53.05,41.02,-36.88,29.42
38697,-0.09,-0.68,0.48,51.54,38.70,-30.08,29.24
38707,-0.08,-0.67,0.49,49.21,32.52,-23.80,29.38
38717,-0.06,-0.66,0.51,42.32,21.81,-19.69,29.28
38727,-0.02,-0.67,0.56,35.13,9.92,-17.66,29.33
38737,0.00,-0.67,0.60,31.61,3.18,-17.08,29.33
38747,0.01,-0.66,0.65,31.10,3.57,-15.36,29.38
38757,-0.01,-0.66,0.71,33.59,4.69,-11.77,29.38
38767,-0.00,-0.67,0.76,38.49,2.65,-8.82,29.33
38777,0.03,-0.67,0.76,42.63,-0.73,-5.75,29.24
38787,0.08,-0.66,0.71,45.14,-4.28,-5.87,29.28
38797,0.11,-0.64,0.65,43.49,-7.49,-7.01,29.28
38807,0.12,-0.63,0.64,38.49,-9.87,-9.53,29.38
38817,0.13,-0.63,0.65,34.15,-10.44,-12.41,29.24
38827,0.13,-0.62,0.66,32.31,-5.44,-14.92,29.33
38837,0.15,-0.62,0.67,31.71,5.60,-17.12,29.28
38847,0.15,-0.62,0.68,30.97,17.79,-20.96,29.38
38857,0.12,-0.61,0.72,30.14,26.33,-23.72,29.33
38867,0.06,-0.60,0.77,30.50,28.90,-25.67,29.33
38877,-0.00,-0.58,0.79,32.52,26.30,-24.00,29.38
38887,-0.04,-0.57,0.80,38.85,19.72,-20.18,29.38
38897,-0.04,-0.55,0.77,43.62,13.24,-15.93,29.33
38907,-0.03,-0.53,0.73,42.27,6.43,-12.93,29.33
38917,-0.03,-0.51,0.71,37.79,-0.87,-10.00,29.28
38927,-0.01,-0.52,0.71,32.92,-5.66,-7.02,29.28
38937,0.01,-0.53,0.74,31.44,-5.80,-5.69,29.33
38947,0.03,-0.53,0.75,31.30,-2.59,-4.60,29.33
38957,0.04,-0.54,0.78,32.15,0.99,-3.56,29.19
38967,0.05,-0.54,0.81,33.73,-0.14,-3.06,29.38
38977,0.07,-0.54,0.79,35.81,-1.18,-3.41,29.28
38987,0.07,-0.53,0.76,36.07,-2.12,-4.07,29.24
38997,0.08,-0.52,0.73,35.27,-1.02,-5.33,29.24
39007,0.08,-0.50,0.73,32.87,0.74,-5.89,29.28
39017,0.07,-0.50,0.75,29.56,-0.58,-5.84,29.28
39027,0.07,-0.49,0.75,27.09,-3.03,-5.50,29.33
39037,0.07,-0.49,0.76,25.70,-4.98,-5.11,29.33
39047,0.07,-0.49,0.76,24.66,-6.92,-4.18,29.28
39057,0.09,-0.49,0.76,24.24,-8.22,-4.31,29.28
39067,0.11,-0.49,0.76,23.15,-10.03,-4.85,29.33
39077,0.14,-0.49,0.76,22.55,-11.00,-6.40,29.33
39087,0.15,-0.49,0.75,21.14,-9.80,-9.08,29.28
39097,0.16,-0.48,0.76,20.18,-8.24,-11.52,29.28
39107,0.15,-0.47,0.78,19.04,-5.74,-13.18,29.38
39117,0.15,-0.47,0.79,17.92,-2.55,-14.86,29.24
39127,0.15,-0.48,0.82,18.28,1.69,-16.53,29.33
39137,0.15,-0.48,0.84,21.02,4.82,-18.41,29.28
39147,0.13,-0.47,0.86,23.19,8.03,-19.73,29.28
39157,0.11,-0.45,0.85,24.69,9.97,-20.29,29.38
39167,0.09,-0.43,0.86,25.15,9.93,-20.13,29.33
39177,0.07,-0.43,0.88,26.07,6.86,-20.33,29.38
39187,0.06,-0.43,0.90,27.00,2.13,-19.60,29.28
39197,0.06,-0.41,0.90,28.19,-0.69,-17.84,29.33
39207,0.07,-0.41,0.91,29.56,-2.21,-16.24,29.33
39217,0.08,-0.41,0.93,30.45,-2.52,-15.26,29.28
39227,0.10,-0.42,0.95,31.63,-1.63,-14.50,29.28
39237,0.11,-0.44,0.95,35.38,-2.05,-13.80,29.28
39247,0.11,-0.43,0.98,43.87,-7.13,-12.95,29.33
39257,0.14,-0.42,0.95,50.55,-13.43,-13.15,29.24
39267,0.15,-0.41,0.89,52.11,-18.37,-14.05,29.28
39277,0.16,-0.39,0.87,52.08,-20.69,-15.32,29.38
39287,0.18,-0.39,0.85,51.00,-17.98,-16.24,29.24
39297,0.20,-0.38,0.83,48.88,-11.68,-16.80,29.33
39307,0.19,-0.37,0.84,47.35,-4.43,-17.80,29.28
39317,0.18,-0.37,0.84,46.53,-0.34,-18.30,29.28
39327,0.17,-0.36,0.85,45.84,-1.27,-17.99,29.38
39337,0.16,-0.36,0.85,45.68,-3.08,-18.05,29.33
39347,0.16,-0.35,0.83,46.70,-4.47,-18.23,29.28
39357,0.19,-0.35,0.81,47.70,-4.57,-18.50,29.38
39367,0.20,-0.33,0.78,46.96,-1.52,-20.50,29.28
39377,0.22,-0.33,0.75,43.87,3.31,-22.47,29.24
39387,0.22,-0.32,0.74,39.65,7.72,-25.92,29.33
39397,0.19,-0.31,0.76,35.38,9.18,-28.66,29.28
39407,0.16,-0.30,0.76,32.99,8.78,-30.48,29.28
39417,0.15,-0.29,0.77,30.31,7.40,-31.18,29.33
39427,0.12,-0.27,0.77,27.14,5.15,-31.40,29.33
39437,0.10,-0.27,0.79,24.53,2.46,-30.31,29.28
39447,0.10,-0.28,0.84,22.68,0.23,-29.84,29.28
39457,0.09,-0.28,0.88,23.14,-1.51,-29.76,29.33
39467,0.09,-0.27,0.87,23.98,0.15,-28.47,29.33
39477,0.08,-0.26,0.87,23.46,2.56,-26.44,29.28
39487,0.08,-0.26,0.91,22.81,0.39,-25.28,29.38
39497,0.07,-0.25,0.93,22.91,-6.68,-23.42,29.28
39507,0.07,-0.23,0.91,21.72,-12.33,-20.39,29.33
39517,0.10,-0.24,0.89,21.33,-16.70,-19.31,29.28
39527,0.10,-0.24,0.89,21.47,-20.12,-18.42,29.38
39537,0.12,-0.23,0.88,19.29,-16.05,-15.98,29.28
39547,0.16,-0.23,0.88,14.62,-13.65,-16.69,29.24
39557,0.17,-0.23,0.88,9.95,-6.18,-17.42,29.33
39567,0.23,-0.26,0.89,6.34,5.03,-19.42,29.28
39577,0.18,-0.25,0.92,4.35,17.25,-21.56,29.28
39587,0.16,-0.25,0.98,7.64,20.82,-23.15,29.33
39597,0.14,-0.26,1.03,16.97,17.38,-23.15,29.33
39607,0.10,-0.25,1.06,29.39,5.83,-23.96,29.28
39617,0.09,-0.22,0.99,36.44,-4.62,-23.56,29.28
39627,0.11,-0.20,0.93,38.37,-10.37,-21.76,29.24
39637,0.12,-0.19,0.86,35.99,-8.87,-20.45,29.33
39647,0.15,-0.18,0.82,29.60,0.00,-18.58,29.19
39657,0.16,-0.18,0.82,21.79,8.70,-18.82,29.38
39667,0.15,-0.19,0.84,14.09,14.53,-18.91,29.19
39677,0.15,-0.20,0.86,9.18,15.85,-19.21,29.24
39687,0.15,-0.21,0.88,7.31,16.15,-21.77,29.33
39697,0.14,-0.21,0.88,6.95,19.29,-22.45,29.38
39707,0.14,-0.21,0.95,13.99,14.48,-23.30,29.38
39717,0.13,-0.21,0.95,21.56,9.07,-22.53,29.33
39727,0.12,-0.21,0.95,28.77,-1.92,-20.30,29.24
39737,0.14,-0.20,0.90,32.32,-8.28,-20.42,29.28
39747,0.17,-0.19,0.86,31.48,-9.01,-21.33,29.28
39757,0.16,-0.18,0.84,28.76,-7.21,-21.78,29.33
39767,0.17,-0.17,0.82,24.90,-2.22,-21.56,29.33
39777,0.17,-0.18,0.82,21.40,2.98,-22.02,29.33
39787,0.34,-0.18,0.86,19.63,20.24,-24.83,29.28
39797,0.12,-0.17,0.87,22.78,3.49,-21.96,29.28
39807,0.12,-0.16,0.88,20.91,-3.02,-22.93,29.24
39817,0.15,-0.17,0.88,23.02,-3.64,-22.35,29.33
39827,0.15,-0.16,0.89,27.24,-6.44,-23.79,29.28
39837,0.14,-0.15,0.85,30.30,-3.94,-22.58,29.28
39847,0.15,-0.14,0.83,29.37,0.37,-21.27,29.28
39857,0.14,-0.12,0.81,26.79,4.40,-20.00,29.33
39867,0.13,-0.11,0.81,23.92,7.21,-18.94,29.28
39877,0.09,-0.10,0.80,21.18,6.40,-16.84,29.38
39887,0.10,-0.08,0.78,19.39,5.96,-12.40,29.28
39897,0.09,-0.07,0.76,16.17,7.49,-8.06,29.24
39907,0.09,-0.07,0.77,11.98,8.31,-3.79,29.24
39917,0.08,-0.07,0.78,8.64,6.69,0.29,29.19
39927,0.12,-0.12,0.83,5.24,5.76,3.02,29.38
39937,0.17,-0.15,0.88,3.63,1.44,-0.75,29.42
39947,0.17,-0.16,0.91,6.16,-6.87,-4.95,29.42
39957,0.17,-0.14,0.88,12.34,-11.23,-7.42,29.38
39967,0.16,-0.12,0.83,16.71,-8.15,-7.40,29.28
39977,0.18,-0.10,0.81,19.59,-2.64,-7.11,29.33
39987,0.16,-0.09,0.78,19.93,4.94,-6.29,29.33
39997,0.15,-0.07,0.76,16.74,13.42,-4.93,29.38
40007,0.12,-0.06,0.75,11.70,19.47,-3.79,29.38
40017,0.13,-0.07,0.79,5.46,21.77,-3.24,29.28
40027,0.12,-0.10,0.84,1.41,19.20,-4.30,29.24
40037,0.12,-0.11,0.91,-0.11,10.14,-6.38,29.28
40047,0.11,-0.11,0.95,4.73,-4.41,-8.89,29.38
40057,0.11,-0.11,0.92,10.63,-14.75,-9.34,29.28
40067,0.13,-0.10,0.88,14.92,-17.05,-8.95,29.33
40077,0.15,-0.09,0.84,16.24,-12.63,-8.85,29.33
40087,0.13,-0.07,0.83,14.81,-6.50,-8.95,29.28
40097,0.13,-0.07,0.83,12.50,-1.87,-7.85,29.28
40107,0.13,-0.07,0.83,10.25,-0.13,-7.47,29.33
40117,0.14,-0.08,0.86,9.87,-1.64,-8.27,29.33
40127,0.13,-0.09,0.88,10.79,-6.66,-9.43,29.28
40137,0.13,-0.09,0.88,11.59,-9.02,-10.00,29.28
40147,0.15,-0.09,0.91,11.97,-8.22,-10.79,29.33
40157,0.13,-0.09,0.91,14.20,-6.02,-11.02,29.33
40167,0.12,-0.08,0.93,17.58,-6.51,-11.33,29.28
40177,0.12,-0.07,0.91,19.71,-7.69,-11.04,29.28
40187,0.12,-0.07,0.89,20.94,-6.69,-10.99,29.38
40197,0.13,-0.05,0.85,20.98,-2.06,-10.07,29.33
40207,0.13,-0.05,0.85,18.31,3.85,-9.57,29.28
40217,0.13,-0.04,0.87,15.40,8.85,-9.08,29.19
40227,0.12,-0.04,0.90,13.33,11.14,-8.51,29.33
40237,0.12,-0.04,0.91,12.35,11.86,-7.49,29.24
40247,0.11,-0.04,0.93,12.20,12.54,-6.94,29.28
40257,0.11,-0.04,0.94,11.87,11.85,-6.48,29.28
40267,0.10,-0.04,0.93,11.51,9.53,-5.85,29.28
40277,0.10,-0.03,0.94,11.08,6.92,-4.73,29.33
40287,0.11,-0.03,0.93,11.82,5.67,-2.78,29.24
40297,0.12,-0.03,0.91,13.63,7.63,-2.67,29.28
40307,0.12,-0.03,0.90,14.18,10.37,-2.05,29.28
40317,0.12,-0.02,0.90,13.72,11.33,-2.07,29.33
40327,0.11,-0.02,0.90,12.40,11.22,-1.34,29.33
40337,0.12,-0.03,0.91,12.23,11.05,-2.02,29.28
40347,0.12,-0.02,0.91,12.99,10.18,-3.21,29.19
40357,0.11,-0.02,0.92,15.57,8.56,-3.73,29.19
40367,0.10,-0.02,0.91,18.23,2.66,-4.14,29.33
40377,0.10,-0.01,0.88,18.80,-2.08,-4.38,29.24
40387,0.11,0.00,0.88,18.66,-3.82,-4.16,29.28
40397,0.10,0.00,0.87,19.81,-2.81,-4.02,29.28
40407,0.13,0.00,0.87,20.61,0.03,-2.85,29.33
40417,0.13,0.00,0.87,20.82,4.17,-2.76,29.24
40427,0.13,0.01,0.86,20.89,6.47,-3.04,29.38
40437,0.12,0.02,0.87,19.69,7.11,-3.59,29.28
40447,0.12,0.03,0.87,17.60,5.18,-3.95,29.24
40457,0.12,0.03,0.88,16.51,2.89,-3.88,29.33
40467,0.13,0.02,0.88,15.89,1.55,-4.19,29.28
40477,0.13,0.03,0.87,15.02,-0.11,-5.21,29.28
40487,0.12,0.03,0.87,14.11,-0.98,-5.31,29.33
40497,0.13,0.03,0.87,14.03,-1.37,-5.60,29.24
40507,0.14,0.03,0.87,14.30,1.01,-6.20,29.33
40517,0.14,0.04,0.86,14.26,5.00,-6.70,29.28
40527,0.13,0.04,0.86,14.69,7.79,-6.74,29.28
40537,0.13,0.05,0.87,13.91,10.28,-7.07,29.38
40547,0.13,0.04,0.86,12.53,11.04,-7.41,29.33
40557,0.12,0.05,0.86,11.09,10.04,-7.66,29.28
40567,0.13,0.04,0.85,10.15,8.66,-9.27,29.28
40577,0.10,0.04,0.86,9.35,4.77,-10.25,29.33
40587,0.12,0.05,0.87,6.94,3.83,-9.89,29.33
40597,0.08,0.05,0.90,12.18,5.85,-8.56,29.19
40607,0.08,0.05,0.85,9.69,3.28,-6.91,29.28
40617,0.09,0.06,0.85,8.47,3.67,-5.37,29.33
40627,0.08,0.05,0.87,9.08,4.61,-3.24,29.33
40637,0.05,0.04,0.96,16.37,-4.89,-0.65,29.14
40647,0.04,0.05,1.04,28.94,-24.21,2.95,29.28
40657,0.06,0.05,0.97,38.39,-41.82,0.09,29.28
40667,0.09,0.07,0.87,38.98,-44.98,0.15,29.33
40677,0.13,0.08,0.83,35.60,-40.64,-0.36,29.24
40687,0.14,0.09,0.81,26.68,-28.63,-0.92,29.28
40697,0.15,0.09,0.82,16.86,-18.28,-1.95,29.28
40707,0.14,0.09,0.82,8.76,-9.88,-2.05,29.28
40717,0.15,0.08,0.84,5.08,-2.21,-1.99,29.33
40727,0.16,0.08,0.85,4.32,5.34,-2.14,29.28
40737,0.16,0.07,0.86,3.36,12.03,-2.63,29.28
40747,0.16,0.07,0.88,2.04,15.47,-4.80,29.19
40757,0.14,0.07,0.90,1.60,16.18,-4.92,29.24
40767,0.13,0.07,0.93,4.72,11.99,-5.85,29.33
40777,0.13,0.07,0.94,7.17,8.73,-6.43,29.28
40787,0.12,0.07,0.92,8.31,5.98,-7.10,29.38
40797,0.13,0.07,0.90,9.27,5.71,-7.34,29.24
40807,0.13,0.08,0.89,8.39,7.07,-7.13,29.33
40817,0.13,0.08,0.90,8.76,7.28,-7.15,29.28
40827,0.14,0.09,0.88,8.34,9.13,-6.85,29.28
40837,0.14,0.09,0.87,7.91,11.31,-6.76,29.33
40847,0.15,0.08,0.87,7.67,15.14,-6.44,29.33
40857,0.15,0.09,0.87,6.51,18.99,-6.09,29.28
40867,0.14,0.08,0.89,5.40,20.03,-6.60,29.28
40877,0.14,0.09,0.91,4.97,16.00,-5.79,29.28
40887,0.13,0.08,0.91,5.59,7.52,-9.81,29.24
40897,0.12,0.09,0.92,6.67,3.69,-10.26,29.24
40907,0.12,0.09,0.91,8.51,-3.18,-11.52,29.28
40917,0.12,0.10,0.88,8.25,-4.63,-11.85,29.28
40927,0.12,0.10,0.87,6.62,-4.44,-12.20,29.33
40937,0.11,0.10,0.86,4.15,-6.84,-11.60,29.33
40947,0.12,0.11,0.86,-1.60,-3.26,-11.46,29.28
40957,0.11,0.11,0.86,-3.63,0.47,-12.18,29.38
40967,0.10,0.10,0.90,-3.47,-0.49,-12.53,29.33
40977,0.09,0.09,0.95,-1.91,-3.79,-13.12,29.33
40987,0.10,0.11,0.97,2.95,-8.81,-12.85,29.28
40997,0.09,0.09,0.94,7.63,-10.15,-14.21,29.28
41007,0.08,0.09,0.91,11.02,-8.73,-12.87,29.33
41017,0.10,0.11,0.88,12.38,-5.69,-12.05,29.33
41027,0.08,0.12,0.86,9.76,-1.44,-10.85,29.19
41037,0.08,0.13,0.85,6.56,-0.66,-9.95,29.28
41047,0.07,0.13,0.85,3.39,-0.08,-9.27,29.28
41057,0.08,0.13,0.84,1.79,-1.07,-9.20,29.24
41067,0.08,0.12,0.84,1.15,-1.73,-9.28,29.19
41077,0.08,0.12,0.85,0.67,-2.94,-9.81,29.38
41087,0.08,0.12,0.86,0.92,-5.47,-9.71,29.28
41097,0.06,0.13,0.85,0.65,-7.55,-9.17,29.33
41107,0.07,0.12,0.84,-0.05,-7.56,-8.58,29.33
41117,0.07,0.13,0.83,-1.01,-6.66,-7.67,29.28
41127,0.07,0.13,0.83,-1.83,-3.81,-6.92,29.28
41137,0.06,0.13,0.84,-2.08,-0.94,-5.93,29.24
41147,0.07,0.13,0.82,-2.41,1.08,-5.71,29.33
41157,0.07,0.13,0.81,-4.31,2.66,-4.47,29.38
41167,0.05,0.13,0.83,-5.84,2.51,-3.56,29.28
41177,0.05,0.13,0.84,-6.52,2.39,-2.11,29.33
41187,0.04,0.13,0.85,-7.23,1.82,-1.08,29.33
41197,0.04,0.13,0.86,-8.60,1.50,0.27,29.28
41207,0.03,0.12,0.85,-7.72,-1.92,1.57,29.28
41217,0.05,0.10,0.86,-7.08,-1.56,1.95,29.28
41227,0.04,0.10,0.86,-6.79,-1.85,3.57,29.24
41237,0.06,0.10,0.87,-6.44,-0.50,5.56,29.28
41247,0.06,0.09,0.89,-5.83,0.85,7.31,29.28
41257,0.08,0.08,0.91,-5.04,2.27,8.51,29.33
41267,0.10,0.07,0.91,-4.51,3.51,8.70,29.33
41277,0.12,0.06,0.91,-4.26,4.75,8.60,29.42
41287,0.13,0.06,0.92,-3.82,5.11,8.15,29.38
41297,0.13,0.05,0.95,-3.14,2.79,6.99,29.19
41307,0.14,0.05,0.96,-2.18,-0.16,5.75,29.33
41317,0.13,0.06,0.95,-0.53,-3.40,3.78,29.33
