Timestamp,Acce_X,Acce_Y,Acce_Z,Gyro_X,Gyro_Y,Gyro_Z,Temp
11067,-0.02,-0.17,0.95,9.18,5.16,-2.21,33.66
11077,-0.04,-0.17,0.98,10.23,9.19,-1.30,33.75
11087,-0.06,-0.18,1.01,12.11,9.07,-1.39,33.61
11097,-0.08,-0.18,1.00,12.78,7.27,-1.48,33.61
11107,-0.09,-0.16,0.99,10.12,4.00,-2.49,33.61
11117,-0.10,-0.16,0.99,8.52,-2.87,-2.31,33.61
11127,-0.08,-0.18,0.94,7.54,-8.05,-3.62,33.52
11137,-0.10,-0.13,0.94,2.84,-9.62,-3.57,33.61
11147,-0.08,-0.13,0.93,0.44,-9.57,-2.79,33.71
11157,-0.07,-0.13,0.92,-0.17,-9.15,-1.48,33.71
11167,-0.05,-0.12,0.91,-1.30,-7.05,-0.82,33.71
11177,-0.04,-0.10,0.90,-2.87,-4.70,-1.31,33.61
11187,-0.04,-0.11,0.90,-5.04,-2.52,-2.02,33.71
11197,-0.05,-0.11,0.90,-6.40,-4.35,-3.91,33.71
11207,-0.03,-0.10,0.89,-7.71,-4.90,-5.66,33.61
11217,-0.05,-0.09,0.87,-9.71,-5.39,-7.36,33.71
11227,-0.06,-0.08,0.83,-12.87,-4.93,-8.49,33.71
11237,-0.07,-0.07,0.80,-17.39,-6.09,-8.99,33.80
11247,-0.06,-0.06,0.76,-22.81,-7.22,-8.41,33.66
11257,-0.05,-0.04,0.73,-29.56,-3.71,-8.69,33.71
11267,-0.06,-0.04,0.71,-35.54,-3.37,-9.16,33.61
11277,-0.08,-0.03,0.71,-42.41,-3.95,-9.07,33.71
11287,-0.09,-0.04,0.69,-48.32,-4.53,-8.69,33.66
11297,-0.09,-0.04,0.68,-52.70,-6.41,-8.85,33.71
11307,-0.11,-0.05,0.66,-56.44,-9.33,-8.61,33.71
11317,-0.12,-0.05,0.62,-61.10,-14.85,-8.84,33.66
11327,-0.11,-0.07,0.60,-65.53,-20.21,-8.99,33.75
11337,-0.11,-0.08,0.56,-69.54,-27.66,-9.15,33.66
11347,-0.09,-0.10,0.52,-70.95,-32.92,-8.76,33.66
11357,-0.06,-0.11,0.47,-70.76,-33.65,-6.46,33.66
11367,-0.04,-0.13,0.45,-68.31,-33.56,-4.52,33.66
11377,0.00,-0.13,0.40,-70.29,-34.69,-3.24,33.66
11387,0.04,-0.12,0.34,-76.34,-32.40,-3.86,33.57
11397,0.05,-0.13,0.28,-85.62,-34.87,-5.31,33.66
11407,0.05,-0.13,0.26,-97.53,-39.92,-7.31,33.66
11417,0.05,-0.15,0.23,-110.90,-42.79,-8.20,33.66
11427,0.04,-0.17,0.22,-122.47,-47.85,-6.11,33.66
11437,0.03,-0.19,0.20,-133.44,-47.51,-2.26,33.57
11447,0.10,-0.12,0.00,-149.95,-48.18,4.41,33.66
11457,0.06,-0.24,0.16,-156.79,-37.40,5.85,33.57
11467,0.06,-0.30,0.20,-164.29,-31.56,7.34,33.57
11477,0.06,-0.37,0.26,-166.23,-30.35,6.81,33.57
11487,0.04,-0.44,0.28,-165.51,-33.47,3.02,33.57
11497,0.04,-0.49,0.29,-165.21,-38.72,-1.89,33.66
11507,0.02,-0.55,0.27,-168.38,-41.59,-5.44,33.75
11517,-0.02,-0.57,0.29,-173.02,-45.48,-5.19,33.57
11527,-0.07,-0.61,0.30,-179.27,-49.11,1.45,33.66
11537,-0.12,-0.64,0.30,-184.37,-53.66,14.11,33.61
11547,-0.16,-0.71,0.34,-185.62,-57.44,30.23,33.71
11557,-0.16,-0.80,0.40,-181.69,-62.26,45.79,33.71
11567,-0.11,-0.90,0.45,-179.34,-65.69,56.27,33.61
11577,-0.04,-1.00,0.50,-175.63,-66.96,60.31,33.80
11587,0.02,-1.10,0.56,-166.96,-66.90,56.81,33.71
11597,0.05,-1.15,0.57,-159.85,-68.15,49.54,33.71
11607,0.02,-1.14,0.54,-154.92,-75.80,41.98,33.71
11617,0.01,-1.13,0.50,-154.14,-85.10,38.98,33.71
11627,-0.01,-1.13,0.44,-157.08,-97.77,41.66,33.61
11637,0.02,-1.15,0.36,-160.56,-110.41,47.13,33.71
11647,0.12,-1.22,0.29,-164.35,-112.02,54.38,33.61
11657,0.23,-1.32,0.26,-169.51,-105.15,57.36,33.71
11667,0.30,-1.41,0.27,-175.05,-91.98,57.04,33.61
11677,0.34,-1.49,0.31,-176.08,-78.11,54.37,33.61
11687,0.34,-1.57,0.36,-173.50,-65.89,49.15,33.61
11697,0.30,-1.61,0.38,-169.30,-59.85,44.50,33.66
11707,0.24,-1.63,0.39,-164.27,-60.99,42.11,33.61
11717,0.19,-1.62,0.38,-165.57,-59.65,44.50,33.61
11727,0.17,-1.77,0.63,-143.01,-87.94,49.33,33.61
11737,0.14,-1.63,0.34,-142.90,-98.87,52.58,33.66
11747,0.41,-1.44,-0.02,-156.09,-71.16,61.08,33.71
11757,0.41,-1.67,0.03,-168.76,-66.70,72.09,33.71
11767,0.68,-1.62,0.30,-184.03,-52.32,71.36,33.57
11777,0.45,-1.77,0.15,-167.85,-86.23,61.19,33.57
11787,0.45,-1.80,0.26,-165.05,-84.06,44.31,33.66
11797,0.77,-1.63,0.16,-153.80,-103.11,28.27,33.57
11807,0.38,-1.76,0.33,-155.22,-149.57,2.21,33.66
11817,0.37,-1.70,0.30,-151.15,-165.01,-10.56,33.66
11827,0.35,-1.63,0.33,-148.31,-164.12,-16.23,33.57
11837,0.33,-1.67,0.37,-125.95,-171.77,-16.47,33.66
11847,0.45,-1.70,0.22,-98.46,-171.21,-15.31,33.66
11857,0.40,-1.66,0.19,-104.96,-151.40,-18.32,33.66
11867,0.42,-1.59,0.16,-92.93,-133.66,-12.40,33.66
11877,0.04,-1.63,0.28,-73.21,-142.00,6.78,33.66
11887,0.56,-1.40,0.18,-106.70,-64.73,-20.38,33.66
11897,0.46,-1.47,0.17,-83.13,-169.89,-19.34,33.75
11907,0.27,-1.53,-0.11,-100.05,-44.43,-28.52,33.66
11917,0.30,-1.32,0.00,-107.28,-39.11,-34.21,33.66
11927,0.12,-1.29,-0.01,-111.08,-41.76,-24.99,33.66
11937,-0.01,-1.32,0.12,-113.47,-42.20,-21.77,33.57
11947,0.04,-1.31,-0.01,-110.00,-25.94,-16.64,33.66
11957,0.09,-1.33,0.08,-105.89,-21.48,-10.85,33.61
11967,0.10,-1.34,-0.02,-94.08,-13.08,-8.60,33.61
11977,0.02,-1.26,-0.04,-85.77,-17.68,-6.31,33.61
11987,0.00,-1.21,-0.08,-76.38,-36.93,-4.70,33.61
11997,-0.01,-1.15,-0.18,-70.79,-44.49,-4.12,33.61
12007,-0.03,-1.08,-0.29,-76.08,-57.83,-2.05,33.52
12017,-0.01,-1.04,-0.34,-89.63,-67.40,0.23,33.71
12027,-0.06,-1.00,-0.33,-109.24,-76.27,-5.42,33.71
12037,-0.00,-1.00,-0.40,-121.27,-82.06,-10.96,33.61
12047,0.08,-0.99,-0.42,-136.58,-86.23,-10.24,33.71
12057,0.00,-0.89,-0.41,-177.91,-81.98,-12.12,33.61
12067,0.06,-0.98,-0.61,-173.85,-64.95,-9.30,33.71
12077,0.16,-0.94,-0.60,-201.08,-53.02,-5.31,33.61
12087,0.00,-0.88,-0.20,-226.72,-77.53,-9.10,33.61
12097,0.32,-1.12,-0.65,-167.73,-40.96,4.66,33.71
12107,0.15,-1.14,-0.47,-163.22,-80.75,-9.60,33.66
12117,0.51,-1.19,-0.70,-132.40,-96.49,-11.40,33.61
12127,0.29,-1.06,-0.50,-115.65,-92.12,-34.21,33.61
12137,0.16,-1.03,-0.38,-102.43,-123.11,-53.25,33.71
12147,0.06,-1.10,-0.50,-81.36,-135.08,-87.88,33.57
12157,0.20,-1.05,-0.58,-81.01,-189.59,-98.75,33.61
12167,0.25,-1.13,-0.93,-58.78,-170.53,-117.85,33.61
12177,0.28,-0.84,-0.69,-84.23,-173.19,-121.51,33.57
12187,0.35,-0.97,-0.77,-72.20,-152.90,-124.61,33.66
12197,0.35,-0.89,-0.57,-64.44,-108.09,-124.67,33.66
12207,0.11,-0.87,-0.60,-73.57,-147.16,-127.44,33.66
12217,-0.09,-0.75,-0.83,-62.95,-146.15,-125.36,33.66
12227,0.02,-0.75,-0.83,-64.92,-149.98,-123.80,33.75
12237,0.08,-0.74,-0.87,-66.38,-139.85,-120.38,33.66
12247,0.05,-0.73,-0.77,-76.17,-136.93,-104.92,33.66
12257,0.07,-0.76,-0.68,-75.48,-141.57,-94.81,33.66
12267,-0.00,-0.81,-0.41,-72.05,-138.24,-97.10,33.66
12277,0.18,-0.89,-0.52,-60.90,-123.27,-98.53,33.75
12287,0.08,-0.91,-0.54,-51.51,-139.59,-105.97,33.66
12297,0.02,-0.79,-0.62,-38.34,-144.49,-109.91,33.66
12307,-0.04,-0.54,-0.64,-28.11,-135.77,-117.92,33.57
12317,-0.08,-0.43,-0.71,-29.69,-161.04,-114.99,33.66
12327,-0.04,-0.50,-0.83,-47.92,-187.86,-120.37,33.66
12337,0.07,-0.48,-0.98,-82.06,-182.79,-131.50,33.57
12347,0.24,-0.58,-1.10,-104.98,-155.02,-118.17,33.57
12357,0.20,-0.63,-0.84,-125.16,-170.41,-104.17,33.57
12367,0.16,-0.65,-0.90,-134.49,-157.51,-102.35,33.61
12377,0.30,-0.78,-0.83,-125.74,-133.69,-109.54,33.52
12387,0.25,-0.74,-0.79,-124.02,-140.43,-121.92,33.61
12397,0.20,-0.76,-0.58,-115.11,-118.69,-132.52,33.61
12407,0.25,-0.78,-0.59,-79.40,-133.89,-146.18,33.52
12417,0.21,-0.74,-0.65,-50.26,-128.38,-155.60,33.61
12427,0.23,-0.78,-0.71,-39.13,-122.00,-163.71,33.71
12437,-0.05,-0.74,-0.80,-50.76,-119.42,-168.05,33.61
12447,0.05,-0.66,-0.82,-35.59,-127.33,-179.62,33.61
12457,-0.07,-0.55,-0.78,-44.78,-125.89,-178.82,33.52
12467,-0.15,-0.47,-0.82,-58.81,-141.82,-179.36,33.61
12477,-0.17,-0.46,-0.92,-66.79,-144.06,-175.30,33.61
12487,-0.15,-0.39,-1.04,-72.84,-150.29,-170.40,33.52
12497,-0.23,-0.35,-1.08,-72.85,-147.33,-156.75,33.61
12507,-0.18,-0.39,-1.09,-70.76,-129.25,-140.08,33.61
12517,-0.43,-0.65,-1.26,-71.50,-114.31,-129.83,33.52
12527,-0.08,-0.50,-0.97,-104.46,-93.24,-114.46,33.61
12537,-0.09,-0.52,-0.76,-122.37,-88.84,-108.76,33.52
12547,-0.00,-0.64,-0.72,-107.51,-99.86,-111.94,33.71
12557,0.10,-0.58,-0.67,-96.11,-97.18,-122.03,33.71
12567,0.09,-0.56,-0.79,-66.17,-90.60,-132.58,33.61
12577,0.11,-0.59,-1.03,-42.84,-51.80,-134.49,33.52
12587,-0.07,-0.61,-0.78,15.88,-24.61,-111.11,33.71
12597,-0.16,-0.56,-0.65,43.86,-15.45,-117.77,33.61
12607,-0.12,-0.60,-0.60,36.81,-48.56,-121.16,33.61
12617,-0.24,-0.67,-0.71,86.69,-58.92,-98.17,33.71
12627,-0.26,-0.40,-0.67,62.89,-57.66,-95.18,33.52
12637,-0.18,-0.49,-0.80,64.29,-39.88,-69.27,33.61
12647,-0.29,-0.42,-0.65,44.79,-23.59,-46.55,33.61
12657,-0.34,-0.44,-0.57,21.02,-48.70,-41.95,33.61
12667,-0.22,-0.50,-0.56,-1.60,-72.98,-42.95,33.61
12677,-0.13,-0.61,-0.49,0.06,-82.50,-41.22,33.61
12687,-0.00,-0.75,-0.52,10.84,-81.24,-46.14,33.61
12697,0.05,-0.80,-0.56,28.11,-63.30,-49.77,33.61
12707,0.09,-0.83,-0.57,49.44,-42.72,-60.95,33.42
12717,0.06,-0.84,-0.59,67.30,-34.98,-77.56,33.52
12727,-0.03,-0.80,-0.62,74.34,-41.88,-96.17,33.71
12737,-0.09,-0.70,-0.78,76.40,-46.78,-107.95,33.52
12747,-0.27,-0.62,-0.85,78.08,-65.16,-114.46,33.61
12757,-0.36,-0.56,-0.97,73.91,-80.58,-109.57,33.66
12767,-0.43,-0.53,-1.02,60.11,-87.82,-92.72,33.61
12777,-0.44,-0.54,-0.93,45.22,-85.19,-65.21,33.52
12787,-0.41,-0.57,-0.83,36.03,-87.54,-41.22,33.61
12797,-0.18,-0.66,-0.81,31.40,-67.10,-27.24,33.66
12807,-0.13,-0.70,-0.70,36.95,-59.54,-21.33,33.52
12817,-0.01,-0.76,-0.64,41.02,-50.64,-20.95,33.52
12827,0.06,-0.82,-0.53,49.71,-45.88,-23.50,33.61
12837,0.12,-0.85,-0.52,63.57,-40.60,-33.16,33.57
12847,0.11,-0.83,-0.61,81.13,-32.31,-42.40,33.61
12857,0.09,-0.79,-0.67,91.04,-27.79,-49.28,33.52
12867,0.03,-0.76,-0.70,89.18,-26.56,-55.59,33.61
12877,-0.04,-0.71,-0.77,85.65,-28.78,-58.47,33.57
12887,-0.06,-0.70,-0.84,79.69,-29.02,-56.87,33.71
12897,-0.09,-0.71,-0.82,70.85,-28.87,-52.58,33.52
12907,-0.09,-0.74,-0.77,59.40,-32.60,-49.50,33.52
12917,-0.03,-0.77,-0.72,48.49,-32.29,-48.06,33.57
12927,0.00,-0.82,-0.64,44.43,-28.08,-47.63,33.61
12937,0.03,-0.86,-0.56,40.55,-27.48,-50.78,33.61
12947,0.03,-0.86,-0.50,42.58,-26.18,-55.22,33.52
12957,-0.01,-0.85,-0.57,50.35,-25.50,-57.56,33.66
12967,-0.06,-0.86,-0.58,56.18,-25.86,-56.70,33.61
12977,-0.09,-0.85,-0.58,56.15,-24.55,-52.64,33.61
12987,-0.11,-0.86,-0.57,54.82,-24.18,-45.83,33.61
12997,-0.10,-0.85,-0.58,52.11,-23.39,-40.44,33.57
13007,-0.06,-0.85,-0.57,49.82,-19.89,-36.00,33.52
13017,-0.01,-0.86,-0.55,46.15,-16.17,-33.62,33.61
13027,0.06,-0.87,-0.54,42.89,-12.72,-34.52,33.61
13037,0.09,-0.88,-0.54,39.40,-11.47,-38.73,33.66
13047,0.04,-0.85,-0.56,37.50,-14.35,-42.96,33.66
13057,-0.01,-0.81,-0.62,34.17,-11.56,-39.65,33.57
13067,-0.08,-0.76,-0.70,26.26,-6.40,-30.64,33.66
13077,-0.10,-0.73,-0.74,15.10,1.71,-20.37,33.57
13087,-0.12,-0.75,-0.71,5.37,8.43,-10.92,33.57
13097,-0.18,-0.80,-0.59,-0.58,9.19,-2.23,33.57
13107,-0.14,-0.84,-0.54,-1.95,3.21,3.48,33.57
13117,-0.09,-0.89,-0.47,0.96,0.78,5.28,33.57
13127,-0.03,-0.94,-0.37,7.21,-1.34,3.22,33.57
13137,0.02,-0.97,-0.36,9.88,-2.70,-3.05,33.66
13147,0.04,-1.00,-0.36,11.50,0.08,-10.14,33.47
13157,0.01,-0.99,-0.36,13.42,2.35,-14.52,33.57
13167,-0.01,-0.98,-0.35,17.31,6.79,-16.06,33.47
13177,-0.04,-0.96,-0.37,20.67,13.59,-15.02,33.57
13187,-0.06,-0.93,-0.40,24.69,15.86,-12.99,33.57
13197,-0.08,-0.91,-0.44,25.66,14.55,-12.41,33.66
13207,-0.07,-0.89,-0.49,21.48,12.67,-13.04,33.57
13217,-0.07,-0.87,-0.50,15.83,8.03,-14.09,33.57
13227,-0.06,-0.87,-0.50,10.99,3.66,-15.08,33.57
13237,-0.03,-0.86,-0.47,5.73,1.60,-14.73,33.57
13247,-0.02,-0.86,-0.47,1.33,1.51,-13.37,33.57
13257,0.00,-0.87,-0.47,-0.87,6.67,-10.12,33.57
13267,0.02,-0.86,-0.47,-1.08,18.96,-2.17,33.57
13277,0.03,-0.87,-0.49,-0.79,38.85,9.65,33.66
13287,0.03,-0.86,-0.51,0.47,69.62,24.53,33.57
13297,0.02,-0.86,-0.50,6.69,101.27,40.31,33.57
13307,-0.03,-0.90,-0.44,20.87,115.59,49.97,33.57
13317,-0.08,-0.95,-0.37,25.88,118.92,55.21,33.57
13327,-0.11,-0.94,-0.39,24.79,112.06,57.73,33.57
13337,-0.13,-0.93,-0.39,25.47,103.28,57.77,33.66
13347,-0.10,-0.97,-0.39,31.56,92.53,52.55,33.57
13357,-0.04,-0.98,-0.35,29.36,73.02,47.44,33.57
13367,-0.01,-0.97,-0.38,24.09,51.08,37.88,33.66
13377,-0.01,-0.99,-0.31,21.30,27.68,23.98,33.66
13387,0.00,-1.01,-0.26,23.19,1.66,10.46,33.66
13397,0.01,-1.04,-0.23,24.84,-17.31,-2.21,33.47
13407,-0.00,-1.04,-0.21,28.89,-24.98,-8.81,33.57
13417,-0.01,-1.03,-0.24,37.22,-26.20,-9.65,33.57
13427,-0.03,-1.02,-0.24,47.80,-16.31,-7.69,33.57
13437,0.01,-1.00,-0.25,54.90,-7.24,-6.70,33.61
13447,0.03,-0.98,-0.29,55.80,1.21,-6.81,33.52
13457,0.05,-0.98,-0.31,54.00,2.75,-7.15,33.61
13467,0.06,-0.97,-0.33,51.05,8.60,-11.05,33.52
13477,0.07,-0.94,-0.37,46.15,6.99,-14.20,33.61
13487,0.06,-0.91,-0.40,40.63,9.65,-14.90,33.52
13497,0.02,-0.91,-0.42,34.60,10.41,-15.82,33.61
13507,-0.00,-0.89,-0.43,26.55,8.73,-16.92,33.52
13517,-0.02,-0.89,-0.42,16.66,10.03,-15.24,33.61
13527,-0.03,-0.89,-0.43,7.13,11.83,-12.11,33.52
13537,-0.02,-0.90,-0.42,0.11,15.13,-8.44,33.61
13547,-0.00,-0.92,-0.41,-1.62,20.64,-3.77,33.61
13557,0.01,-0.93,-0.40,-3.19,27.24,1.44,33.61
13567,0.02,-0.95,-0.37,-4.24,34.96,6.50,33.61
13577,0.02,-0.94,-0.36,-3.15,41.71,12.00,33.61
13587,0.01,-0.96,-0.36,-1.05,51.24,18.08,33.71
13597,-0.00,-0.96,-0.33,2.06,59.54,23.60,33.52
13607,-0.03,-0.98,-0.29,6.35,65.13,27.19,33.52
13617,-0.05,-0.99,-0.24,12.78,59.15,26.17,33.52
13627,-0.06,-1.01,-0.22,14.20,43.28,19.79,33.71
13637,-0.01,-1.02,-0.22,11.25,25.33,10.03,33.61
13647,0.01,-1.01,-0.24,6.55,8.14,0.64,33.52
13657,0.03,-0.98,-0.26,3.50,-1.25,-5.89,33.71
13667,0.01,-0.96,-0.27,2.09,-3.54,-6.50,33.61
13677,0.04,-0.94,-0.35,0.55,6.18,-3.80,33.52
13687,0.00,-0.92,-0.35,-4.03,20.82,0.24,33.61
13697,-0.05,-0.92,-0.32,-7.13,29.34,5.66,33.52
13707,-0.08,-0.94,-0.30,-6.64,30.50,9.07,33.61
13717,-0.08,-0.96,-0.24,-5.33,28.31,10.53,33.61
13727,-0.07,-0.97,-0.25,-4.81,19.22,7.39,33.61
13737,-0.05,-0.97,-0.25,-5.85,9.80,1.82,33.71
13747,-0.05,-0.99,-0.22,-6.26,0.84,-2.79,33.61
13757,-0.05,-1.00,-0.20,-3.42,-2.73,-3.79,33.61
13767,-0.05,-0.99,-0.21,0.73,1.56,-1.01,33.66
13777,-0.04,-0.99,-0.22,5.51,9.21,3.02,33.52
13787,-0.03,-0.97,-0.26,6.98,14.96,6.21,33.71
13797,-0.03,-0.96,-0.29,4.89,18.18,8.55,33.61
13807,-0.02,-0.94,-0.30,2.15,20.85,9.37,33.57
13817,-0.03,-0.93,-0.31,-0.52,23.62,10.31,33.52
13827,-0.03,-0.92,-0.34,-3.53,26.93,12.55,33.52
13837,-0.02,-0.91,-0.34,-5.13,31.79,15.40,33.61
13847,0.02,-0.90,-0.34,-6.44,38.89,18.78,33.57
13857,0.04,-0.92,-0.34,-5.47,47.22,22.47,33.52
13867,0.07,-0.91,-0.35,-2.84,61.62,28.53,33.52
13877,0.10,-0.91,-0.34,2.38,79.28,36.84,33.61
13887,0.13,-0.81,-0.47,0.69,93.57,44.82,33.66
13897,0.13,-0.87,-0.38,9.13,128.75,56.73,33.61
13907,0.16,-0.88,-0.43,13.08,159.01,69.54,33.61
13917,0.20,-0.87,-0.46,15.05,189.92,81.62,33.61
13927,0.23,-0.89,-0.48,14.15,221.47,90.58,33.66
13937,0.21,-0.89,-0.51,9.48,251.79,97.51,33.61
13947,0.18,-0.91,-0.48,6.02,276.24,107.19,33.52
13957,0.16,-0.93,-0.42,9.94,302.44,116.60,33.66
13967,0.18,-0.96,-0.37,11.33,313.98,120.24,33.66
13977,0.16,-0.98,-0.34,17.80,327.07,124.73,33.47
13987,0.16,-0.97,-0.35,25.01,331.19,125.80,33.66
13997,0.12,-0.94,-0.34,29.10,332.73,123.11,33.57
14007,0.17,-1.00,-0.43,32.87,330.27,121.77,33.66
14017,0.00,-0.96,-0.34,29.74,333.77,111.25,33.47
14027,0.05,-0.95,-0.33,31.15,328.20,107.44,33.57
14037,-0.04,-0.94,-0.34,30.43,326.23,107.77,33.57
14047,-0.06,-0.93,-0.30,31.33,317.02,108.12,33.57
14057,-0.06,-0.99,-0.26,33.07,298.64,98.64,33.66
14067,-0.11,-1.04,-0.18,32.09,271.59,82.34,33.57
14077,-0.15,-1.04,-0.13,26.63,224.53,63.92,33.57
14087,-0.20,-1.01,-0.13,23.45,177.98,48.73,33.57
14097,-0.18,-1.00,-0.13,22.46,134.53,37.07,33.57
14107,-0.08,-0.98,-0.20,20.17,114.08,34.15,33.57
14117,0.02,-0.92,-0.31,19.83,112.75,39.07,33.66
14127,0.16,-0.90,-0.40,19.30,132.26,48.78,33.57
14137,0.24,-0.90,-0.42,16.73,160.14,56.69,33.57
14147,0.26,-0.94,-0.41,9.83,179.24,57.62,33.66
14157,0.24,-0.99,-0.35,0.95,185.54,50.21,33.66
14167,0.19,-1.06,-0.26,-4.56,179.85,38.67,33.66
14177,0.12,-1.10,-0.18,-3.57,165.37,25.01,33.75
14187,0.06,-1.10,-0.17,0.46,153.82,15.37,33.66
14197,-0.00,-1.06,-0.22,6.60,146.64,12.02,33.57
14207,-0.06,-1.02,-0.24,12.29,146.47,13.44,33.57
14217,-0.07,-1.02,-0.24,15.42,147.73,19.01,33.57
14227,-0.11,-1.00,-0.22,18.34,145.54,26.38,33.57
14237,-0.10,-1.00,-0.21,20.58,135.92,30.69,33.66
14247,-0.03,-0.99,-0.24,20.17,131.45,33.37,33.57
14257,0.04,-0.96,-0.31,20.14,135.65,35.40,33.57
14267,0.12,-0.97,-0.36,18.43,146.79,35.54,33.57
14277,0.17,-0.95,-0.40,16.31,166.95,35.02,33.57
14287,0.17,-0.93,-0.38,13.16,187.60,33.88,33.57
14297,0.14,-0.91,-0.37,10.53,206.76,34.14,33.66
14307,0.09,-0.90,-0.33,6.63,218.76,33.77,33.66
14317,0.02,-0.90,-0.28,-0.66,222.06,33.19,33.57
14327,-0.09,-0.92,-0.22,-8.40,221.05,35.22,33.66
14337,-0.16,-0.98,-0.13,-10.47,207.79,39.25,33.66
14347,-0.19,-1.06,-0.00,-7.33,187.21,41.53,33.66
14357,-0.16,-1.14,0.03,-0.49,162.03,43.16,33.57
14367,-0.04,-1.17,0.02,10.44,141.77,41.48,33.66
14377,0.06,-1.18,-0.07,18.81,135.83,39.59,33.57
14387,0.17,-1.18,-0.14,28.78,141.40,37.83,33.66
14397,0.25,-1.15,-0.23,37.77,159.74,38.34,33.57
14407,0.27,-1.13,-0.31,41.30,182.76,39.27,33.57
14417,0.25,-1.12,-0.29,40.14,201.28,38.17,33.66
14427,0.20,-1.12,-0.27,36.90,208.37,34.58,33.61
14437,0.12,-1.14,-0.22,35.47,201.02,29.13,33.61
14447,0.04,-1.18,-0.16,37.47,182.89,22.18,33.61
14457,-0.01,-1.18,-0.11,40.40,162.64,16.05,33.61
14467,-0.05,-1.21,-0.08,46.35,137.85,12.02,33.52
14477,-0.03,-1.23,-0.07,51.94,123.16,10.34,33.61
14487,-0.00,-1.25,-0.08,57.30,114.03,8.34,33.61
14497,-0.00,-1.26,-0.05,62.58,103.85,6.58,33.61
14507,0.05,-1.25,-0.10,66.85,99.89,5.56,33.52
14517,0.09,-1.22,-0.11,68.64,97.76,4.89,33.52
14527,0.11,-1.25,-0.09,68.92,96.81,0.99,33.71
14537,0.09,-1.26,-0.08,71.83,95.48,-3.68,33.52
14547,0.02,-1.23,-0.10,75.80,96.18,-5.59,33.61
14557,-0.04,-1.20,-0.14,76.32,102.00,-1.73,33.61
14567,-0.11,-1.17,-0.18,76.92,107.24,9.08,33.52
14577,-0.09,-1.17,-0.21,76.05,119.68,26.70,33.52
14587,-0.05,-1.17,-0.24,71.88,142.44,49.63,33.52
14597,0.01,-1.16,-0.22,69.33,172.49,69.27,33.61
14607,0.00,-1.23,-0.05,69.82,186.24,78.56,33.52
14617,-0.05,-1.33,0.13,69.33,186.50,75.25,33.61
14627,-0.15,-1.41,0.29,72.93,156.96,57.92,33.52
14637,-0.24,-1.41,0.35,79.94,113.85,38.34,33.61
14647,-0.31,-1.40,0.36,89.21,65.83,25.69,33.61
14657,-0.34,-1.40,0.41,99.91,25.31,21.08,33.61
14667,-0.26,-1.38,0.40,109.95,1.36,23.82,33.61
14677,-0.15,-1.36,0.35,116.31,-8.17,30.34,33.52
14687,-0.05,-1.39,0.34,120.40,-10.43,32.14,33.61
14697,0.01,-1.38,0.31,125.37,-8.11,29.80,33.52
14707,0.05,-1.42,0.33,128.47,-4.20,23.98,33.52
14717,0.03,-1.47,0.36,130.06,-7.62,10.09,33.52
14727,-0.01,-1.48,0.37,136.98,-20.76,-7.82,33.52
14737,-0.03,-1.45,0.31,141.47,-28.58,-21.18,33.47
14747,-0.05,-1.37,0.23,141.04,-29.30,-26.85,33.61
14757,-0.05,-1.29,0.15,137.50,-20.96,-25.57,33.42
14767,-0.04,-1.23,0.11,131.25,-5.60,-21.34,33.52
14777,-0.07,-1.22,0.12,128.52,7.34,-16.56,33.57
14787,-0.12,-1.19,0.15,125.44,16.67,-12.67,33.61
14797,-0.16,-1.16,0.23,119.85,16.53,-8.63,33.61
14807,-0.17,-1.16,0.30,114.29,8.89,-7.21,33.52
14817,-0.17,-1.19,0.34,110.23,-0.70,-5.69,33.57
14827,-0.12,-1.18,0.39,112.79,-4.20,-0.95,33.47
14837,-0.05,-1.18,0.41,112.78,1.54,3.76,33.47
14847,0.05,-1.20,0.46,114.14,10.56,6.34,33.47
14857,0.12,-1.24,0.46,116.11,19.04,3.50,33.57
14867,0.13,-1.21,0.43,116.53,24.21,-3.10,33.57
14877,0.11,-1.17,0.38,113.18,31.89,-9.63,33.57
14887,0.02,-1.11,0.36,110.03,34.31,-12.99,33.47
14897,-0.08,-1.05,0.38,105.85,30.85,-13.02,33.66
14907,-0.13,-1.01,0.37,102.96,27.45,-9.01,33.47
14917,-0.19,-0.98,0.36,102.29,23.34,-2.00,33.57
14927,-0.20,-0.96,0.37,100.99,15.62,5.37,33.47
14937,-0.16,-0.94,0.36,96.37,6.32,9.83,33.47
14947,-0.08,-0.89,0.38,86.96,-1.39,11.25,33.57
14957,-0.00,-0.91,0.40,71.39,-4.38,8.55,33.57
14967,0.05,-0.93,0.46,59.16,-2.72,3.85,33.57
14977,0.07,-0.93,0.52,52.81,5.71,2.63,33.47
14987,0.07,-0.92,0.62,52.78,12.09,4.84,33.47
14997,0.07,-0.93,0.73,58.75,19.83,7.18,33.57
15007,0.11,-0.90,0.76,61.36,26.82,9.15,33.47
15017,-0.03,-0.66,0.25,14.38,14.24,5.94,33.57
15027,0.23,-1.04,1.54,84.47,53.40,12.70,33.57
15037,0.08,-0.94,0.78,98.66,20.96,5.18,33.47
15047,-0.04,-0.92,0.81,105.07,17.22,3.37,33.38
15057,-0.08,-0.79,0.72,109.34,6.09,1.94,33.57
15067,-0.07,-0.73,0.64,107.94,-2.38,0.43,33.47
15077,-0.08,-0.72,0.57,104.84,-10.84,1.91,33.47
15087,-0.07,-0.69,0.46,99.95,-12.35,4.23,33.47
15097,-0.06,-0.63,0.40,95.27,-13.53,6.37,33.57
15107,-0.02,-0.58,0.38,85.91,-12.73,8.47,33.47
15117,0.02,-0.54,0.40,76.78,-13.89,8.73,33.47
15127,0.02,-0.54,0.47,69.01,-14.43,6.23,33.47
15137,0.02,-0.57,0.56,68.49,-17.79,2.96,33.42
15147,0.01,-0.58,0.60,69.50,-21.92,-0.06,33.52
15157,0.03,-0.59,0.63,69.63,-22.08,-2.66,33.42
15167,0.03,-0.62,0.63,68.84,-21.62,-5.77,33.42
15177,0.01,-0.61,0.61,68.53,-18.03,-6.32,33.52
15187,0.01,-0.58,0.59,68.69,-11.19,-3.94,33.52
15197,0.03,-0.54,0.57,70.02,0.14,0.34,33.42
15207,0.03,-0.52,0.55,67.07,14.47,7.48,33.52
15217,0.01,-0.52,0.60,62.93,24.08,13.13,33.52
15227,0.00,-0.50,0.66,60.38,23.18,14.78,33.61
15237,0.00,-0.50,0.70,57.31,16.53,12.82,33.42
15247,0.03,-0.49,0.72,54.52,3.66,7.05,33.52
15257,0.06,-0.46,0.74,49.18,-8.02,-0.41,33.52
15267,0.08,-0.45,0.74,44.46,-14.40,-6.61,33.42
15277,0.09,-0.45,0.75,40.92,-12.08,-9.79,33.42
15287,0.09,-0.46,0.80,39.01,1.15,-9.18,33.52
15297,0.07,-0.50,0.87,41.02,15.53,-5.97,33.52
15307,0.03,-0.54,0.97,48.11,23.45,-4.17,33.42
15317,-0.02,-0.53,0.99,54.76,26.11,-2.79,33.61
15327,-0.04,-0.50,0.98,57.82,25.63,-1.66,33.52
15337,-0.06,-0.46,0.94,57.40,16.82,-2.49,33.52
15347,-0.05,-0.42,0.90,53.83,7.31,-4.98,33.42
15357,-0.02,-0.38,0.84,48.69,1.59,-8.03,33.52
15367,0.00,-0.34,0.79,42.41,-0.20,-9.40,33.52
15377,0.04,-0.33,0.76,36.73,0.64,-9.56,33.52
15387,0.07,-0.34,0.78,31.54,6.12,-9.57,33.47
15397,0.08,-0.36,0.83,27.74,13.53,-8.50,33.52
15407,0.09,-0.37,0.86,25.22,24.43,-6.60,33.42
15417,0.07,-0.39,0.92,25.66,32.66,-5.40,33.52
15427,0.08,-0.39,0.96,27.89,37.66,-6.20,33.57
15437,0.03,-0.41,0.98,29.51,39.48,-8.29,33.52
15447,0.00,-0.41,0.99,32.47,36.14,-13.71,33.42
15457,-0.07,-0.38,0.93,33.92,25.45,-17.98,33.42
15467,-0.14,-0.36,0.95,37.42,18.67,-17.92,33.47
15477,-0.14,-0.33,0.92,41.73,13.86,-13.80,33.52
15487,-0.12,-0.30,0.87,43.77,16.06,-9.28,33.47
15497,-0.13,-0.27,0.84,42.21,20.81,-6.63,33.47
15507,-0.15,-0.24,0.84,38.09,24.17,-4.63,33.47
15517,-0.17,-0.25,0.84,34.43,22.44,-2.96,33.47
15527,-0.19,-0.26,0.85,30.96,19.92,-2.29,33.57
15537,-0.19,-0.27,0.88,30.17,14.75,-2.50,33.57
15547,-0.20,-0.27,0.88,30.27,11.62,-1.83,33.47
15557,-0.19,-0.27,0.87,25.65,9.24,-1.37,33.47
15567,-0.20,-0.27,0.89,23.92,7.25,-0.95,33.47
15577,-0.18,-0.27,0.91,23.71,5.86,-0.47,33.57
15587,-0.17,-0.26,0.91,23.36,2.87,-0.09,33.47
15597,-0.15,-0.24,0.88,24.11,-0.60,-0.11,33.57
15607,-0.11,-0.21,0.87,22.11,-1.92,-0.34,33.47
15617,-0.08,-0.19,0.85,20.31,0.67,-1.36,33.47
15627,-0.07,-0.19,0.85,16.38,8.70,-1.42,33.47
15637,-0.10,-0.22,0.90,12.20,16.70,-1.19,33.47
15647,-0.13,-0.24,0.95,11.28,19.53,-0.99,33.47
15657,-0.18,-0.24,0.97,9.83,20.52,-0.26,33.47
15667,-0.22,-0.24,1.00,8.41,17.37,0.08,33.57
15677,-0.23,-0.24,1.04,10.53,12.46,1.07,33.47
15687,-0.24,-0.27,1.08,12.79,7.77,2.50,33.47
15697,-0.24,-0.28,1.10,14.87,6.81,5.30,33.47
15707,-0.24,-0.31,1.15,18.03,3.30,7.57,33.47
15717,-0.20,-0.32,1.16,23.19,1.27,9.34,33.47
15727,-0.16,-0.30,1.12,24.81,-4.50,8.00,33.47
15737,-0.11,-0.27,1.08,26.81,-8.66,5.73,33.47
15747,-0.06,-0.25,1.06,25.77,-7.98,3.73,33.57
15757,-0.04,-0.24,1.05,24.23,-3.39,2.72,33.47
15767,-0.02,-0.25,1.02,22.84,3.47,1.83,33.57
15777,-0.02,-0.24,1.02,20.50,7.95,0.18,33.47
15787,-0.04,-0.23,1.02,19.63,8.46,-2.41,33.57
15797,-0.05,-0.22,0.98,18.52,6.20,-5.76,33.38
15807,-0.08,-0.20,0.98,18.02,3.48,-8.53,33.47
15817,-0.11,-0.19,0.96,17.16,2.85,-9.37,33.52
15827,-0.15,-0.19,0.98,16.60,2.76,-8.84,33.52
15837,-0.16,-0.20,1.00,18.14,0.64,-7.39,33.52
15847,-0.16,-0.19,1.00,22.03,-3.44,-5.15,33.52
15857,-0.14,-0.15,0.96,21.79,-3.24,-3.47,33.42
15867,-0.10,-0.12,0.95,20.55,-3.19,-3.22,33.42
15877,-0.09,-0.12,0.93,18.12,0.64,-3.15,33.52
15887,-0.08,-0.11,0.92,14.72,4.75,-3.77,33.42
15897,-0.10,-0.09,0.93,11.79,8.09,-3.18,33.61
15907,-0.12,-0.08,0.91,8.00,9.24,-1.65,33.52
15917,-0.13,-0.09,0.92,4.99,8.40,-0.02,33.52
15927,-0.11,-0.13,0.96,3.47,6.64,-0.15,33.52
15937,-0.10,-0.16,1.00,6.58,2.96,-1.60,33.61
15947,-0.11,-0.15,1.02,10.55,-1.22,-3.34,33.52
15957,-0.10,-0.13,1.01,13.71,-4.79,-3.65,33.42
15967,-0.10,-0.11,0.98,15.01,-8.12,-2.84,33.52
15977,-0.09,-0.08,0.94,13.68,-7.39,-2.03,33.42
15987,-0.08,-0.08,0.95,10.02,-6.50,-1.83,33.52
15997,-0.06,-0.08,0.92,6.61,-4.53,-2.09,33.61
16007,-0.06,-0.09,0.91,1.77,-1.40,-2.99,33.52
16017,-0.06,-0.10,0.91,-0.38,1.45,-3.83,33.52
16027,-0.06,-0.11,0.93,-1.24,4.96,-4.34,33.52
16037,-0.08,-0.11,0.92,-1.21,7.45,-4.18,33.47
16047,-0.09,-0.10,0.91,-1.40,10.96,-3.56,33.52
16057,-0.13,-0.09,0.93,-3.02,10.17,-3.13,33.52
