Millis,Acce_X,Acce_Y,Acce_Z,Gyro_X,Gyro_Y,Gyro_Z,Temp
42567,0.06,0.10,1.00,-11.05,-4.60,15.89,30.51
42577,0.10,0.14,1.09,-16.61,0.82,20.41,30.60
42587,0.15,0.14,1.19,-20.34,13.27,26.58,30.51
42597,0.16,0.13,1.33,-20.89,26.50,31.57,30.51
42607,0.15,0.05,1.50,-17.04,35.25,32.34,30.65
42617,0.10,-0.01,1.59,-8.56,31.50,28.06,30.46
42627,0.09,-0.04,1.60,4.06,15.45,20.61,30.65
42637,0.07,-0.02,1.49,16.99,-4.08,14.26,30.46
42647,0.06,0.02,1.41,27.88,-22.90,10.20,30.46
42657,0.08,0.07,1.28,34.12,-37.76,7.94,30.55
42667,0.12,0.10,1.13,37.05,-49.47,8.06,30.60
42677,0.17,0.12,0.99,37.51,-53.54,8.38,30.51
42687,0.24,0.11,0.84,37.66,-52.05,9.37,30.60
42697,0.31,0.11,0.70,36.47,-44.35,8.90,30.51
42707,0.35,0.14,0.61,30.53,-35.54,5.57,30.60
42717,0.36,0.17,0.51,21.94,-29.30,-0.41,30.60
42727,0.35,0.19,0.46,10.23,-24.41,-7.60,30.60
42737,0.33,0.18,0.44,0.50,-19.48,-13.91,30.55
42747,0.28,0.16,0.44,-6.93,-17.47,-17.11,30.55
42757,0.22,0.14,0.45,-11.02,-14.41,-18.50,30.46
42767,0.18,0.17,0.43,-13.85,-9.97,-18.43,30.55
42777,0.14,0.19,0.40,-18.79,-4.70,-17.10,30.65
42787,0.11,0.22,0.37,-26.61,1.71,-14.27,30.55
42797,0.09,0.25,0.38,-35.30,9.11,-13.08,30.65
42807,0.05,0.24,0.35,-44.11,16.89,-11.79,30.60
42817,0.02,0.27,0.35,-55.60,27.19,-9.77,30.60
42827,-0.01,0.29,0.35,-66.76,38.75,-6.63,30.51
42837,-0.03,0.29,0.38,-75.59,49.05,-3.30,30.51
42847,-0.03,0.28,0.39,-83.08,59.05,0.53,30.60
42857,-0.07,0.28,0.41,-89.01,61.10,8.56,30.51
42867,-0.08,0.23,0.46,-95.98,61.62,15.86,30.46
42877,-0.09,0.17,0.54,-100.55,58.66,22.66,30.55
42887,-0.09,0.11,0.60,-103.85,54.34,27.30,30.65
42897,-0.10,0.07,0.67,-106.00,46.47,29.59,30.55
42907,-0.12,0.01,0.74,-106.09,33.62,30.20,30.65
42917,-0.10,-0.06,0.78,-102.14,13.08,29.19,30.55
42927,-0.07,-0.14,0.79,-98.00,-10.90,25.68,30.60
42937,0.00,-0.19,0.77,-93.56,-30.02,21.31,30.60
42947,0.07,-0.20,0.71,-89.36,-43.69,16.17,30.69
42957,0.14,-0.21,0.62,-87.95,-49.02,12.40,30.51
42967,0.18,-0.18,0.54,-89.44,-46.15,11.47,30.60
42977,0.22,-0.17,0.50,-91.92,-34.64,13.21,30.60
42987,0.20,-0.19,0.49,-95.94,-21.83,17.27,30.60
42997,0.20,-0.22,0.47,-101.71,-7.22,20.85,30.55
43007,0.20,-0.28,0.48,-108.27,2.58,22.81,30.55
43017,0.18,-0.33,0.49,-113.88,8.63,23.30,30.55
43027,0.19,-0.38,0.50,-117.57,16.34,22.53,30.55
43037,0.18,-0.43,0.52,-121.47,25.60,23.39,30.55
43047,0.18,-0.47,0.57,-128.53,37.68,22.78,30.55
43057,0.17,-0.50,0.61,-135.05,45.79,22.11,30.60
43067,0.14,-0.54,0.66,-142.78,51.98,19.77,30.60
43077,0.11,-0.60,0.72,-147.98,50.11,17.50,30.51
43087,0.07,-0.67,0.74,-152.32,43.30,15.88,30.51
43097,0.06,-0.70,0.77,-154.31,33.95,15.01,30.55
43107,0.09,-0.73,0.76,-154.35,28.20,14.24,30.51
43117,0.10,-0.77,0.77,-152.72,24.60,10.93,30.55
43127,0.09,-0.77,0.78,-151.13,25.36,8.03,30.46
43137,0.06,-0.84,0.75,-148.70,24.11,7.76,30.55
43147,0.00,-0.90,0.75,-149.47,22.08,10.08,30.55
43157,0.00,-0.92,0.74,-150.38,13.62,12.35,30.55
43167,-0.01,-0.98,0.70,-151.15,-2.47,13.05,30.55
43177,0.01,-1.03,0.68,-152.02,-19.82,12.75,30.60
43187,0.05,-1.03,0.62,-152.55,-31.59,11.68,30.60
43197,0.07,-1.02,0.57,-154.52,-32.96,13.66,30.51
43207,0.11,-1.00,0.49,-159.48,-23.76,19.94,30.60
43217,0.16,-1.06,0.43,-167.08,-4.08,26.18,30.60
43227,0.15,-1.19,0.45,-174.34,15.18,29.68,30.55
43237,0.17,-1.29,0.48,-180.85,32.20,28.69,30.55
43247,0.15,-1.34,0.55,-184.43,41.68,23.50,30.55
43257,0.10,-1.37,0.65,-186.82,37.59,17.08,30.55
43267,0.06,-1.36,0.74,-187.88,32.85,12.09,30.74
43277,-0.02,-1.31,0.79,-184.15,22.44,11.92,30.55
43287,-0.03,-1.27,0.82,-174.87,20.31,17.77,30.55
43297,-0.06,-1.25,0.80,-168.38,26.99,22.96,30.51
43307,-0.13,-1.25,0.80,-168.06,16.84,28.26,30.60
43317,-0.22,-1.24,0.80,-173.04,-9.15,34.98,30.60
43327,-0.11,-1.29,0.71,-176.52,-13.79,35.68,30.51
43337,-0.08,-1.36,0.71,-176.08,-18.64,29.28,30.60
43347,-0.07,-1.38,0.71,-157.69,-45.98,17.97,30.51
43357,-0.01,-1.34,0.57,-130.37,-59.44,7.01,30.65
43367,0.08,-1.29,0.39,-98.96,-55.82,6.79,30.65
43377,0.16,-1.24,0.20,-78.61,-30.32,14.92,30.55
43387,0.17,-1.26,0.05,-77.04,20.93,21.69,30.65
43397,0.09,-1.27,0.05,-88.08,63.40,21.31,30.55
43407,-0.06,-1.30,0.04,-98.99,95.34,21.22,30.55
43417,-0.21,-1.30,0.06,-111.19,107.95,20.05,30.55
43427,-0.36,-1.35,0.08,-116.26,93.45,17.04,30.55
43437,-0.41,-1.37,0.10,-110.90,63.28,13.08,30.60
43447,-0.37,-1.36,0.04,-105.27,23.56,4.29,30.60
43457,-0.31,-1.31,-0.02,-99.97,-21.59,-7.36,30.60
43467,-0.20,-1.21,-0.14,-102.20,-45.59,-21.37,30.51
43477,-0.21,-1.14,-0.24,-118.85,-50.08,-28.72,30.51
43487,-0.30,-1.12,-0.17,-138.40,-39.76,-22.89,30.46
43497,-0.37,-1.13,-0.07,-149.30,-18.35,-6.76,30.55
43507,-0.46,-1.19,0.01,-151.76,-12.66,11.63,30.55
43517,-0.48,-1.28,0.06,-144.24,-13.60,29.77,30.46
43527,-0.41,-1.38,0.03,-129.91,-29.53,42.75,30.55
43537,-0.26,-1.42,-0.03,-114.99,-48.67,46.37,30.55
43547,-0.04,-1.37,-0.13,-102.34,-56.89,40.09,30.55
43557,0.00,-1.39,-0.18,-111.91,-49.91,23.01,30.51
43567,-0.03,-1.37,-0.12,-130.46,-41.47,9.60,30.51
43577,-0.11,-1.31,-0.04,-136.85,-38.24,3.36,30.60
43587,-0.21,-1.30,-0.03,-135.73,-33.76,4.41,30.60
43597,-0.28,-1.30,-0.02,-128.35,-34.66,10.29,30.51
43607,-0.33,-1.29,-0.04,-117.65,-43.02,21.60,30.60
43617,-0.28,-1.24,-0.09,-107.80,-46.38,36.21,30.55
43627,-0.18,-1.23,-0.20,-104.09,-43.57,47.63,30.55
43637,-0.06,-1.24,-0.28,-108.06,-34.02,51.30,30.55
43647,0.02,-1.29,-0.31,-112.93,-27.77,46.96,30.55
43657,0.04,-1.33,-0.31,-116.46,-26.24,35.97,30.46
43667,0.04,-1.35,-0.29,-117.13,-29.65,24.21,30.55
43677,-0.00,-1.35,-0.25,-113.33,-37.66,11.86,30.65
43687,-0.04,-1.31,-0.25,-107.68,-44.67,2.56,30.51
43697,-0.12,-1.25,-0.25,-103.45,-46.44,0.69,30.51
43707,-0.15,-1.20,-0.23,-100.38,-41.71,6.98,30.51
43717,-0.16,-1.20,-0.20,-96.96,-34.95,15.74,30.51
43727,-0.14,-1.23,-0.19,-92.00,-26.98,23.24,30.51
43737,-0.11,-1.23,-0.24,-87.30,-17.21,29.22,30.51
43747,-0.09,-1.20,-0.25,-86.09,-12.56,32.43,30.55
43757,-0.04,-1.18,-0.29,-85.45,-13.56,32.11,30.46
43767,-0.01,-1.21,-0.32,-86.06,-13.95,26.63,30.55
43777,0.00,-1.21,-0.33,-90.43,-18.55,18.03,30.55
43787,-0.01,-1.24,-0.31,-92.17,-26.58,4.05,30.46
43797,-0.07,-1.23,-0.33,-90.93,-37.08,-7.82,30.55
43807,-0.10,-1.15,-0.38,-89.65,-42.96,-11.05,30.55
43817,-0.12,-1.10,-0.42,-86.15,-37.15,-4.47,30.60
43827,-0.10,-1.05,-0.46,-82.24,-24.61,5.30,30.60
43837,-0.10,-1.04,-0.47,-83.59,-10.73,13.08,30.41
43847,-0.11,-1.04,-0.46,-85.82,-0.52,18.56,30.51
43857,-0.13,-1.06,-0.45,-88.31,0.99,20.75,30.51
43867,-0.14,-1.07,-0.42,-90.76,-0.43,19.24,30.51
43877,-0.18,-1.09,-0.40,-91.91,-7.94,12.73,30.55
43887,-0.21,-1.07,-0.38,-91.22,-16.38,7.04,30.55
43897,-0.24,-1.04,-0.37,-89.34,-27.91,3.37,30.55
43907,-0.23,-1.00,-0.39,-87.18,-31.69,4.44,30.55
43917,-0.25,-1.04,-0.41,-85.39,-32.43,4.89,30.55
43927,-0.31,-1.03,-0.39,-85.50,-35.45,2.58,30.55
43937,-0.40,-1.01,-0.38,-86.79,-45.01,1.04,30.55
43947,-0.45,-0.98,-0.36,-86.73,-58.06,0.15,30.51
43957,-0.54,-1.01,-0.29,-86.50,-75.47,-5.28,30.51
43967,-0.66,-1.05,-0.24,-87.13,-97.86,-9.39,30.60
43977,-0.72,-1.06,-0.21,-81.39,-127.28,-9.80,30.60
43987,-0.70,-1.00,-0.24,-68.95,-150.29,-0.78,30.51
43997,-0.52,-0.86,-0.50,-48.96,-152.96,24.49,30.51
44007,-0.25,-0.79,-0.75,-36.95,-118.87,54.53,30.55
44017,-0.04,-0.72,-0.93,-34.61,-63.15,88.29,30.55
44027,0.20,-0.71,-1.02,-48.60,5.69,111.15,30.55
44037,0.30,-0.83,-0.91,-76.05,64.70,109.37,30.46
44047,0.26,-0.98,-0.69,-102.52,88.93,92.06,30.55
44057,0.11,-1.09,-0.39,-115.18,78.66,65.04,30.55
44067,-0.04,-1.18,-0.17,-111.59,42.69,37.27,30.60
44077,-0.13,-1.24,-0.03,-91.37,-0.81,14.41,30.60
44087,-0.15,-1.21,-0.06,-64.05,-24.18,1.13,30.51
44097,-0.11,-1.09,-0.22,-36.21,-26.69,-1.21,30.60
44107,-0.08,-0.93,-0.44,-16.08,-2.46,10.81,30.60
44117,-0.04,-0.76,-0.61,-11.83,37.73,26.41,30.60
44127,-0.06,-0.67,-0.70,-19.79,73.30,37.11,30.55
44137,-0.13,-0.67,-0.70,-30.79,91.54,39.79,30.55
44147,-0.25,-0.70,-0.62,-41.04,91.24,35.01,30.55
44157,-0.40,-0.72,-0.51,-49.21,67.25,25.10,30.55
44167,-0.53,-0.74,-0.40,-50.87,29.30,16.67,30.65
44177,-0.55,-0.77,-0.36,-45.60,-5.59,10.69,30.55
44187,-0.49,-0.76,-0.41,-38.87,-29.01,10.38,30.60
44197,-0.37,-0.72,-0.52,-30.37,-34.14,14.84,30.60
44207,-0.25,-0.69,-0.63,-24.79,-24.23,20.85,30.51
44217,-0.13,-0.63,-0.70,-24.02,-4.72,24.82,30.60
44227,-0.14,-0.62,-0.71,-29.24,13.79,26.73,30.55
44237,-0.19,-0.62,-0.64,-39.01,26.37,26.52,30.60
44247,-0.32,-0.69,-0.55,-44.56,26.44,24.00,30.46
44257,-0.46,-0.74,-0.44,-47.36,19.28,17.83,30.55
44267,-0.61,-0.77,-0.33,-46.06,-6.40,11.44,30.46
44277,-0.68,-0.75,-0.33,-39.88,-38.50,11.88,30.55
44287,-0.61,-0.68,-0.42,-31.53,-61.73,19.42,30.65
44297,-0.43,-0.63,-0.54,-24.55,-57.98,32.93,30.55
44307,-0.20,-0.62,-0.62,-23.16,-33.44,44.40,30.60
44317,-0.03,-0.66,-0.67,-24.99,-11.21,49.11,30.51
44327,0.04,-0.69,-0.68,-27.19,14.64,42.75,30.51
44337,0.02,-0.70,-0.60,-28.53,31.40,30.32,30.51
44347,-0.09,-0.72,-0.50,-25.10,31.21,18.18,30.51
44357,-0.19,-0.72,-0.44,-20.38,16.44,4.79,30.55
44367,-0.27,-0.73,-0.43,-10.63,-2.50,-6.41,30.65
44377,-0.31,-0.71,-0.47,-0.84,-20.29,-12.81,30.65
44387,-0.27,-0.64,-0.54,6.35,-27.05,-14.31,30.55
44397,-0.21,-0.58,-0.63,13.08,-26.27,-7.65,30.55
44407,-0.10,-0.52,-0.73,13.59,-10.52,2.63,30.55
44417,-0.02,-0.56,-0.75,10.24,10.79,8.58,30.55
44427,-0.04,-0.63,-0.72,6.41,25.66,4.46,30.60
44437,-0.15,-0.63,-0.67,2.31,30.08,-2.50,30.51
44447,-0.27,-0.64,-0.59,1.25,21.15,-5.97,30.60
44457,-0.34,-0.63,-0.55,2.35,8.73,-9.05,30.51
44467,-0.35,-0.64,-0.52,5.44,-6.03,-8.70,30.60
44477,-0.29,-0.63,-0.52,8.46,-12.64,-8.08,30.60
44487,-0.22,-0.64,-0.54,10.70,-13.10,-9.97,30.55
44497,-0.16,-0.63,-0.54,10.78,-12.67,-11.50,30.55
44507,-0.11,-0.64,-0.55,8.64,-8.73,-11.85,30.55
44517,-0.09,-0.67,-0.52,7.85,-0.64,-12.11,30.65
44527,-0.08,-0.73,-0.44,8.56,5.13,-14.27,30.55
44537,-0.08,-0.75,-0.39,11.51,6.50,-16.27,30.55
44547,-0.09,-0.75,-0.35,14.09,4.32,-16.61,30.60
44557,-0.05,-0.79,-0.30,16.56,-3.76,-16.58,30.60
44567,-0.07,-0.95,-0.23,16.64,-15.50,-29.24,30.51
44577,-0.14,-1.04,-0.14,12.75,-36.53,-51.28,30.51
44587,-0.22,-1.10,-0.09,16.12,-70.14,-74.70,30.60
44597,-0.26,-1.12,-0.11,23.11,-103.85,-96.85,30.51
44607,-0.26,-1.04,-0.20,30.55,-125.13,-107.11,30.55
44617,-0.22,-0.93,-0.27,34.87,-120.15,-100.72,30.46
44627,-0.14,-0.88,-0.33,38.47,-90.85,-82.26,30.55
44637,-0.03,-0.90,-0.37,40.63,-46.98,-60.31,30.55
44647,0.06,-0.95,-0.37,43.13,-2.95,-41.60,30.65
44657,0.10,-1.03,-0.35,47.28,32.69,-29.68,30.55
44667,0.09,-1.18,-0.35,51.86,49.22,-32.12,30.51
44677,0.02,-1.33,-0.28,58.78,54.02,-52.79,30.51
44687,-0.19,-1.40,-0.17,72.47,39.59,-81.74,30.60
44697,-0.43,-1.35,-0.17,89.71,14.84,-100.84,30.60
44707,-0.52,-1.24,-0.28,105.21,-0.03,-100.79,30.55
44717,-0.58,-1.13,-0.34,116.08,-0.09,-86.27,30.51
44727,-0.53,-1.08,-0.39,121.92,5.98,-68.73,30.55
44737,-0.40,-1.11,-0.48,122.90,14.31,-56.32,30.55
44747,-0.33,-1.19,-0.54,118.99,19.13,-57.02,30.55
44757,-0.30,-1.15,-0.59,117.36,16.95,-59.30,30.46
44767,-0.32,-1.12,-0.58,113.59,12.03,-56.73,30.65
44777,-0.31,-1.14,-0.53,108.06,9.25,-49.83,30.46
44787,-0.26,-1.19,-0.48,103.51,10.96,-42.98,30.60
44797,-0.22,-1.25,-0.41,104.14,8.03,-40.64,30.51
44807,-0.17,-1.30,-0.39,109.53,5.15,-42.81,30.51
44817,-0.14,-1.36,-0.38,118.96,-3.11,-50.89,30.51
44827,-0.09,-1.36,-0.43,127.24,-6.61,-58.18,30.51
44837,-0.07,-1.34,-0.48,133.76,-0.20,-62.84,30.55
44847,-0.10,-1.32,-0.48,136.85,13.19,-62.27,30.55
44857,-0.12,-1.28,-0.50,136.15,30.34,-58.18,30.46
44867,-0.14,-1.25,-0.51,135.25,42.90,-52.63,30.55
44877,-0.15,-1.23,-0.54,132.93,50.76,-46.55,30.55
44887,-0.15,-1.23,-0.54,130.66,54.89,-43.40,30.55
44897,-0.12,-1.24,-0.51,129.07,58.52,-39.21,30.65
44907,-0.07,-1.25,-0.47,128.53,60.90,-37.07,30.60
44917,-0.07,-1.30,-0.43,129.44,62.56,-37.56,30.51
44927,-0.06,-1.35,-0.39,130.92,67.18,-40.21,30.51
44937,-0.06,-1.40,-0.36,133.65,71.54,-43.91,30.51
44947,-0.07,-1.42,-0.29,136.38,71.69,-51.31,30.41
44957,-0.09,-1.42,-0.28,140.38,64.67,-59.27,30.51
44967,-0.11,-1.38,-0.30,141.95,58.89,-63.01,30.46
44977,-0.16,-1.37,-0.28,143.02,51.77,-65.89,30.65
44987,-0.18,-1.37,-0.25,140.90,46.78,-70.32,30.46
44997,-0.23,-1.36,-0.19,135.37,34.78,-73.30,30.46
45007,-0.25,-1.36,-0.18,132.95,15.19,-76.61,30.55
45017,-0.26,-1.37,-0.15,131.94,-1.33,-81.76,30.55
45027,-0.27,-1.36,-0.12,133.92,-15.79,-83.73,30.51
45037,-0.23,-1.35,-0.12,138.50,-22.21,-79.76,30.51
45047,-0.14,-1.35,-0.12,143.13,-23.28,-75.73,30.51
45057,-0.08,-1.35,-0.16,143.95,-22.53,-73.13,30.46
45067,-0.02,-1.33,-0.14,139.91,-23.45,-71.77,30.51
45077,0.06,-1.33,-0.15,135.45,-25.39,-73.28,30.51
45087,0.12,-1.31,-0.14,127.48,-22.98,-79.54,30.46
45097,0.14,-1.28,-0.10,119.89,-17.92,-83.33,30.46
45107,0.12,-1.28,-0.04,116.08,-8.05,-81.45,30.46
45117,0.10,-1.32,0.03,115.42,4.46,-78.11,30.55
45127,0.06,-1.34,0.13,117.88,11.82,-78.43,30.55
45137,-0.01,-1.32,0.18,121.40,12.26,-79.59,30.60
45147,-0.06,-1.31,0.19,124.50,3.89,-79.36,30.51
45157,-0.06,-1.26,0.17,125.74,-2.53,-79.97,30.51
45167,-0.04,-1.18,0.12,124.38,-5.40,-76.69,30.51
45177,0.01,-1.11,0.07,120.79,-0.46,-71.66,30.41
45187,0.06,-1.07,0.07,117.34,8.34,-67.21,30.55
45197,0.08,-1.06,0.06,110.82,13.33,-64.79,30.46
45207,0.10,-1.04,0.07,102.87,17.42,-62.60,30.37
45217,0.09,-1.02,0.10,94.92,23.80,-58.49,30.55
45227,0.08,-1.02,0.16,88.44,31.37,-52.52,30.55
45237,0.09,-1.05,0.23,85.98,37.89,-47.94,30.46
45247,0.06,-1.09,0.32,89.08,40.21,-44.93,30.46
45257,0.04,-1.11,0.39,96.41,36.21,-40.47,30.51
45267,0.07,-1.11,0.44,104.82,31.07,-38.15,30.51
45277,0.09,-1.10,0.46,109.91,22.34,-38.32,30.51
45287,0.14,-1.09,0.43,112.41,14.44,-42.14,30.51
45297,0.16,-1.07,0.41,110.49,7.79,-47.44,30.51
45307,0.21,-1.03,0.38,106.63,4.34,-53.74,30.51
45317,0.22,-0.98,0.35,103.37,7.44,-57.69,30.55
45327,0.21,-0.93,0.36,99.79,15.83,-56.31,30.55
45337,0.19,-0.89,0.39,97.88,25.60,-51.47,30.46
45347,0.17,-0.86,0.42,97.39,31.66,-45.19,30.46
45357,0.16,-0.85,0.45,98.58,35.27,-40.64,30.46
45367,0.14,-0.84,0.50,96.55,30.87,-38.17,30.46
45377,0.15,-0.82,0.54,92.99,20.58,-38.98,30.51
45387,0.20,-0.79,0.52,86.98,13.40,-43.11,30.41
45397,0.23,-0.76,0.54,78.56,5.71,-46.61,30.41
45407,0.30,-0.71,0.55,68.85,1.88,-49.33,30.46
45417,0.37,-0.68,0.51,57.69,6.17,-50.66,30.41
45427,0.40,-0.69,0.51,47.05,17.10,-49.59,30.46
45437,0.42,-0.73,0.51,39.08,29.53,-48.31,30.46
45447,0.42,-0.78,0.49,36.09,42.53,-47.27,30.46
45457,0.40,-0.78,0.49,35.48,51.50,-48.69,30.37
45467,0.38,-0.76,0.48,36.72,55.37,-51.51,30.46
45477,0.32,-0.75,0.50,38.75,61.53,-52.64,30.55
45487,0.25,-0.72,0.55,43.47,65.47,-49.71,30.51
45497,0.16,-0.71,0.66,46.64,64.29,-45.16,30.41
45507,0.11,-0.71,0.71,50.12,58.37,-40.18,30.51
45517,0.08,-0.69,0.77,55.91,47.31,-36.35,30.41
45527,0.07,-0.69,0.82,59.95,40.55,-34.67,30.41
45537,0.07,-0.68,0.81,65.11,32.92,-32.92,30.46
45547,0.09,-0.61,0.77,67.30,29.60,-29.86,30.46
45557,0.12,-0.55,0.72,64.41,30.69,-26.02,30.46
45567,0.17,-0.50,0.68,58.21,39.50,-22.87,30.46
45577,0.17,-0.45,0.67,53.08,48.18,-18.47,30.46
45587,0.16,-0.43,0.69,48.47,55.59,-13.30,30.55
45597,0.12,-0.41,0.71,43.60,57.59,-7.97,30.55
45607,0.07,-0.39,0.75,38.96,53.69,-2.95,30.51
45617,0.07,-0.40,0.76,35.48,46.44,0.85,30.41
45627,0.07,-0.42,0.80,31.04,37.21,2.49,30.41
45637,0.10,-0.44,0.80,27.42,29.27,2.47,30.51
45647,0.14,-0.44,0.80,27.04,25.08,2.53,30.41
45657,0.15,-0.46,0.80,28.37,21.47,5.66,30.51
45667,0.18,-0.47,0.78,30.93,23.15,8.46,30.55
45677,0.19,-0.44,0.76,33.31,24.02,10.38,30.55
45687,0.19,-0.41,0.72,33.08,25.56,11.79,30.46
45697,0.21,-0.40,0.70,31.77,25.74,12.81,30.55
45707,0.24,-0.37,0.69,28.49,26.27,11.45,30.46
45717,0.24,-0.35,0.68,23.47,28.24,9.22,30.51
45727,0.22,-0.34,0.69,20.27,31.60,9.19,30.51
45737,0.21,-0.34,0.72,19.10,38.82,10.79,30.41
45747,0.18,-0.37,0.79,20.52,44.63,12.35,30.51
45757,0.15,-0.39,0.80,22.20,49.25,14.06,30.46
45767,0.09,-0.37,0.84,23.27,49.95,16.44,30.51
45777,0.06,-0.37,0.88,25.48,47.92,20.70,30.55
45787,0.04,-0.35,0.89,26.69,42.61,24.95,30.46
45797,0.06,-0.34,0.88,29.62,36.34,26.53,30.46
45807,0.08,-0.30,0.82,28.95,32.70,25.94,30.46
45817,0.11,-0.29,0.78,24.06,31.73,24.93,30.46
45827,0.11,-0.28,0.79,15.76,31.24,22.60,30.46
45837,0.11,-0.29,0.81,9.39,32.99,22.15,30.51
45847,0.12,-0.31,0.89,8.03,35.39,20.66,30.41
45857,0.13,-0.34,0.95,12.37,38.15,18.70,30.41
45867,0.10,-0.33,0.98,14.53,38.93,17.94,30.51
45877,0.06,-0.31,1.03,14.87,35.08,18.79,30.51
45887,0.05,-0.28,1.06,11.60,30.40,18.61,30.55
45897,0.02,-0.24,1.07,4.31,23.47,19.02,30.46
45907,0.02,-0.22,1.06,-4.92,17.08,20.89,30.46
45917,0.05,-0.24,1.07,-13.21,13.04,21.85,30.37
45927,0.07,-0.29,1.09,-16.63,10.11,21.22,30.46
45937,0.09,-0.36,1.08,-15.24,5.57,20.84,30.55
45947,0.12,-0.42,1.08,-8.75,0.27,18.50,30.41
45957,0.16,-0.45,1.06,0.15,-5.11,14.69,30.51
45967,0.22,-0.45,1.01,10.32,-3.59,10.76,30.51
45977,0.25,-0.37,0.94,17.24,6.23,9.21,30.51
45987,0.26,-0.31,0.88,16.61,17.44,10.84,30.51
45997,0.25,-0.25,0.85,12.49,27.21,12.14,30.51
46007,0.22,-0.24,0.85,6.37,33.15,12.14,30.46
46017,0.19,-0.25,0.87,-0.52,36.21,9.59,30.46
46027,0.16,-0.26,0.93,-5.02,35.54,6.82,30.55
46037,0.13,-0.28,1.00,-6.50,32.38,4.14,30.46
46047,0.10,-0.31,1.05,-5.53,27.45,0.35,30.55
46057,0.06,-0.33,1.09,-3.04,19.91,-2.06,30.46
46067,0.05,-0.34,1.13,1.77,13.31,-3.98,30.41
46077,0.02,-0.35,1.14,6.87,7.53,-4.40,30.51
46087,0.02,-0.34,1.15,11.69,2.09,-4.44,30.51
46097,0.00,-0.32,1.12,14.79,-2.52,-3.47,30.51
46107,0.01,-0.29,1.11,16.02,-7.60,-2.08,30.46
46117,0.02,-0.28,1.09,16.75,-12.55,-2.15,30.55
46127,0.03,-0.26,1.04,16.05,-16.32,-1.10,30.55
46137,0.07,-0.24,0.99,14.18,-14.75,0.82,30.55
46147,0.11,-0.25,0.95,12.06,-5.76,2.95,30.46
46157,0.12,-0.24,0.96,8.55,2.73,3.65,30.55
46167,0.09,-0.24,1.00,4.46,6.41,2.35,30.37
46177,0.05,-0.25,1.03,2.44,3.54,2.32,30.51
46187,0.05,-0.25,1.04,2.23,2.05,3.01,30.51
46197,0.06,-0.28,1.07,3.24,1.45,3.71,30.41
46207,0.06,-0.29,1.09,5.36,0.87,2.85,30.41
46217,0.06,-0.31,1.08,7.98,1.16,2.15,30.41
46227,0.06,-0.30,1.07,10.85,0.67,1.80,30.41
46237,0.06,-0.29,1.06,10.69,0.50,0.67,30.46
46247,0.06,-0.27,1.04,9.59,-0.53,0.26,30.55
46257,0.06,-0.26,1.02,8.93,-1.05,0.31,30.46
46267,0.07,-0.27,1.00,8.53,-2.41,0.75,30.46
46277,0.07,-0.26,0.98,7.88,-6.40,-0.50,30.55
46287,0.09,-0.26,0.96,8.06,-5.76,-1.02,30.51
46297,0.10,-0.26,0.94,7.22,-5.59,-1.50,30.41
46307,0.11,-0.26,0.93,6.63,-3.65,-3.66,30.41
46317,0.10,-0.26,0.93,5.76,-1.77,-4.56,30.51
46327,0.09,-0.25,0.94,4.79,-0.09,-4.89,30.46
46337,0.07,-0.25,0.95,3.24,1.18,-4.92,30.51
46347,0.07,-0.25,0.97,3.07,1.79,-4.79,30.46
46357,0.05,-0.25,0.96,1.63,2.53,-4.55,30.46
46367,0.05,-0.24,0.96,0.96,0.89,-3.91,30.46
46377,0.06,-0.23,0.96,1.18,0.20,-4.55,30.46
46387,0.06,-0.24,0.94,0.78,-0.02,-4.92,30.55
46397,0.06,-0.22,0.93,-0.46,-0.50,-4.55,30.51
46407,0.05,-0.21,0.92,-2.00,0.15,-3.86,30.51
46417,0.05,-0.21,0.91,-3.39,1.94,-2.41,30.51
46427,0.06,-0.21,0.92,-4.47,5.27,-2.02,30.51
46437,0.05,-0.20,0.91,-6.64,6.58,-2.70,30.51
46447,0.03,-0.20,0.91,-9.21,6.70,-2.92,30.51
46457,0.02,-0.20,0.93,-12.02,5.73,-2.55,30.46
46467,0.01,-0.21,0.95,-14.00,5.22,-2.02,30.46
46477,-0.01,-0.22,0.97,-15.74,2.70,-1.01,30.46
46487,-0.01,-0.23,1.00,-18.08,0.41,0.60,30.55
46497,-0.02,-0.23,1.02,-18.67,-2.47,2.05,30.37
46507,-0.01,-0.26,1.03,-18.15,-5.13,2.70,30.46
46517,0.01,-0.29,1.03,-16.56,-7.56,1.59,30.51
46527,0.04,-0.31,1.03,-13.74,-9.76,0.14,30.51
46537,0.08,-0.31,1.01,-10.43,-8.84,-2.24,30.51
46547,0.10,-0.31,0.99,-7.50,-4.31,-3.71,30.55
46557,0.10,-0.27,0.96,-7.68,1.82,-3.69,30.51
46567,0.09,-0.24,0.95,-11.21,7.45,-3.18,30.46
46577,0.08,-0.25,0.96,-14.89,10.75,-0.90,30.55
46587,0.06,-0.24,0.94,-17.77,12.66,0.73,30.46
46597,0.05,-0.26,0.98,-18.78,15.15,3.62,30.46
46607,0.06,-0.27,1.00,-18.09,15.66,4.11,30.46
46617,0.05,-0.29,1.00,-16.52,13.42,4.15,30.46
46627,0.04,-0.31,1.01,-16.05,7.94,5.11,30.51
46637,0.05,-0.32,1.03,-15.95,4.84,3.95,30.51
46647,0.06,-0.33,1.05,-15.71,1.51,1.33,30.51
46657,0.05,-0.34,1.06,-13.56,-0.58,-0.56,30.41
46667,0.05,-0.33,1.04,-11.02,-2.32,0.23,30.51
46677,0.05,-0.31,1.02,-9.56,-2.44,1.82,30.55
46687,0.07,-0.30,1.00,-9.28,-1.30,3.11,30.46
46697,0.09,-0.31,0.99,-10.35,1.11,3.91,30.65
46707,0.10,-0.30,1.00,-11.16,4.50,4.08,30.46
46717,0.10,-0.32,0.99,-11.68,6.14,2.67,30.46
46727,0.09,-0.32,1.00,-12.63,6.38,0.98,30.46
46737,0.08,-0.32,0.99,-14.09,5.42,-0.79,30.51
46747,0.06,-0.32,1.00,-15.33,3.68,-1.30,30.51
46757,0.06,-0.32,1.01,-16.96,2.12,-0.87,30.51
46767,0.06,-0.33,1.01,-17.57,0.44,0.52,30.51
46777,0.07,-0.34,1.01,-17.44,1.74,1.18,30.51
46787,0.08,-0.35,1.01,-16.93,2.24,1.94,30.41
46797,0.08,-0.34,1.01,-16.85,3.66,2.46,30.46
46807,0.09,-0.34,1.00,-18.38,5.22,1.79,30.46
46817,0.08,-0.34,1.00,-20.76,5.60,0.46,30.46
46827,0.08,-0.35,1.00,-23.39,3.91,-0.61,30.46
46837,0.08,-0.35,1.01,-26.43,1.45,-1.95,30.46
46847,0.07,-0.34,1.02,-29.28,-3.51,-3.44,30.55
46857,0.09,-0.35,1.01,-29.16,-0.78,-5.07,30.60
46867,0.08,-0.35,1.00,-27.27,2.09,-4.23,30.51
46877,0.08,-0.37,0.99,-24.75,5.54,-2.93,30.51
46887,0.07,-0.39,1.03,-20.49,10.98,-1.25,30.60
46897,0.05,-0.41,1.04,-16.02,13.11,-0.40,30.37
46907,0.05,-0.41,1.05,-12.85,13.39,-0.58,30.46
46917,0.03,-0.41,1.07,-10.67,11.10,-1.40,30.55
46927,0.02,-0.40,1.06,-9.69,8.87,-1.89,30.46
46937,0.02,-0.40,1.04,-8.73,6.17,-2.52,30.55
46947,0.01,-0.41,1.04,-8.31,3.15,-1.33,30.55
46957,0.02,-0.41,1.05,-7.48,0.20,-1.44,30.46
46967,0.02,-0.42,1.05,-6.32,-2.49,-1.62,30.55
46977,0.03,-0.42,1.04,-5.71,-4.17,-2.50,30.51
46987,0.04,-0.40,1.03,-5.30,-6.03,-2.53,30.60
46997,0.05,-0.40,1.01,-4.85,-5.34,-2.32,30.51
47007,0.06,-0.39,1.00,-5.25,-4.52,-2.03,30.51
47017,0.08,-0.39,0.99,-5.95,-2.49,-1.63,30.41
47027,0.08,-0.38,0.98,-6.56,0.00,-1.16,30.46
47037,0.08,-0.37,0.97,-7.47,3.27,-0.81,30.46
47047,0.08,-0.40,0.97,-8.53,6.41,-0.76,30.46
47057,0.07,-0.39,0.99,-8.78,9.15,0.20,30.55
47067,0.06,-0.39,0.99,-9.33,10.23,-0.14,30.46
47077,0.05,-0.39,1.01,-8.98,9.69,-0.47,30.46
47087,0.04,-0.40,1.00,-7.11,8.23,0.27,30.46
47097,0.05,-0.41,1.00,-6.18,8.99,1.02,30.41
47107,0.05,-0.40,1.01,-6.32,9.69,0.84,30.51
47117,0.04,-0.40,1.01,-7.13,9.27,0.73,30.51
47127,0.03,-0.40,1.02,-7.91,7.82,0.27,30.51
47137,0.03,-0.41,1.02,-7.65,3.86,0.58,30.51
47147,0.04,-0.39,1.02,-7.74,2.29,0.66,30.60
47157,0.04,-0.39,1.02,-7.07,1.76,0.11,30.55
47167,0.04,-0.39,1.01,-5.40,2.96,-0.05,30.55
47177,0.05,-0.39,1.00,-4.41,4.41,0.06,30.55
47187,0.06,-0.41,0.99,-3.86,2.78,0.43,30.46
47197,0.05,-0.40,1.00,-5.76,3.65,-0.69,30.55
47207,0.06,-0.39,1.01,-7.28,4.46,-1.62,30.46
47217,0.05,-0.41,1.02,-7.89,5.85,-1.77,30.46
47227,0.05,-0.42,1.03,-7.02,5.89,-1.57,30.51
47237,0.05,-0.42,1.03,-5.31,6.00,-2.46,30.51
47247,0.05,-0.41,1.02,-4.27,4.73,-3.15,30.60
47257,0.06,-0.40,1.00,-4.31,3.98,-3.65,30.51
47267,0.05,-0.40,0.99,-4.29,0.98,-1.86,30.51
47277,0.05,-0.39,0.99,-5.69,0.72,-0.78,30.51
47287,0.05,-0.40,0.99,-6.75,2.61,-0.81,30.46
47297,0.05,-0.40,1.00,-6.14,2.81,-2.00,30.46
47307,0.06,-0.39,0.98,-4.70,2.24,-2.31,30.46
47317,0.04,-0.39,0.98,-5.53,2.12,-2.14,30.46
47327,0.04,-0.38,0.98,-6.09,2.26,-2.27,30.55
47337,0.01,-0.38,0.98,-6.73,1.86,-2.02,30.55
47347,0.05,-0.38,0.96,-4.96,5.80,-1.56,30.51
47357,0.03,-0.38,0.97,-5.22,6.73,-0.63,30.41
47367,0.02,-0.38,0.97,-4.66,5.51,-0.15,30.51
47377,0.01,-0.39,0.98,-5.76,3.94,-0.35,30.60
47387,0.00,-0.39,1.00,-5.98,0.72,0.15,30.51
47397,0.01,-0.40,1.00,-6.24,-1.05,0.08,30.51
47407,0.02,-0.39,0.98,-6.37,-1.34,1.13,30.55
47417,0.04,-0.40,0.97,-5.73,-1.48,2.12,30.46
47427,0.04,-0.40,0.98,-6.55,-0.67,1.83,30.46
47437,0.05,-0.40,0.98,-6.78,-0.18,1.25,30.46
47447,0.06,-0.40,0.97,-6.72,0.92,0.35,30.55
47457,0.06,-0.40,0.98,-6.61,1.85,0.47,30.46
47467,0.05,-0.40,0.99,-6.67,4.08,1.94,30.51
47477,0.03,-0.40,1.01,-6.73,5.08,2.66,30.51
47487,0.03,-0.40,1.01,-6.41,5.42,2.63,30.51
47497,0.03,-0.40,1.01,-6.32,5.01,2.73,30.51
47507,0.03,-0.41,1.01,-6.46,4.81,2.98,30.55
47517,0.03,-0.41,1.01,-5.92,4.96,3.07,30.51
47527,0.03,-0.41,1.01,-5.28,4.76,3.39,30.55
47537,0.05,-0.41,1.01,-5.15,4.18,3.51,30.46
47547,0.04,-0.40,1.01,-5.11,2.73,2.67,30.55
47557,0.05,-0.41,0.99,-5.51,2.37,2.67,30.55
