Timestamp,Acce_X,Acce_Y,Acce_Z,Gyro_X,Gyro_Y,Gyro_Z,Temp
10717,-0.04,-0.25,1.18,26.95,5.01,-3.73,32.39
10727,-0.07,-0.20,1.17,28.58,2.64,-2.56,32.29
10737,-0.09,-0.18,1.15,28.58,1.24,0.00,32.29
10747,-0.08,-0.17,1.13,28.12,0.79,2.31,32.44
10757,-0.06,-0.18,1.13,28.23,-0.87,2.84,32.44
10767,-0.04,-0.18,1.14,29.97,-4.67,2.69,32.34
10777,-0.03,-0.17,1.10,31.59,-8.99,2.08,32.44
10787,-0.00,-0.14,1.06,33.02,-14.11,1.34,32.34
10797,0.03,-0.11,0.99,33.91,-18.70,0.66,32.34
10807,0.06,-0.10,0.91,33.40,-18.99,-1.02,32.34
10817,0.10,-0.06,0.85,30.55,-16.99,-3.11,32.34
10827,0.12,-0.04,0.77,26.08,-12.27,-6.50,32.34
10837,0.12,-0.04,0.74,20.90,-7.63,-9.16,32.39
10847,0.10,-0.05,0.73,15.31,-4.53,-12.00,32.34
10857,0.07,-0.03,0.73,12.56,-4.78,-14.15,32.29
10867,0.05,-0.03,0.71,9.34,-4.96,-15.28,32.29
10877,0.02,-0.02,0.70,6.37,-8.99,-16.12,32.29
10887,0.00,-0.01,0.66,3.57,-12.38,-15.92,32.20
10897,-0.00,-0.01,0.62,0.20,-13.89,-15.44,32.39
10907,-0.02,-0.02,0.59,-4.20,-16.03,-14.27,32.39
10917,-0.02,-0.02,0.56,-10.09,-20.03,-14.58,32.29
10927,-0.01,-0.03,0.51,-16.79,-22.52,-13.97,32.29
10937,-0.01,-0.04,0.49,-24.00,-19.65,-13.57,32.29
10947,-0.02,-0.06,0.46,-31.33,-15.15,-12.81,32.34
10957,-0.05,-0.08,0.41,-38.55,-10.34,-13.07,32.25
10967,-0.07,-0.07,0.38,-46.63,-7.59,-13.27,32.34
10977,-0.10,-0.07,0.37,-55.15,-5.89,-12.75,32.34
10987,-0.11,-0.08,0.38,-64.02,-4.61,-10.79,32.34
10997,-0.11,-0.11,0.41,-72.72,-4.89,-9.33,32.34
11007,-0.12,-0.16,0.45,-79.34,-7.10,-7.10,32.44
11017,-0.11,-0.22,0.52,-82.73,-10.92,-4.37,32.34
11027,-0.09,-0.31,0.62,-77.04,-15.86,-1.07,32.25
11037,-0.07,-0.36,0.71,-63.15,-21.16,2.27,32.34
11047,-0.05,-0.35,0.65,-53.95,-16.61,1.91,32.39
11057,-0.06,-0.30,0.68,-57.83,-17.88,1.51,32.29
11067,-0.04,-0.28,0.64,-65.79,-16.06,0.26,32.29
11077,-0.05,-0.27,0.60,-71.83,-18.66,3.54,32.39
11087,0.00,-0.28,0.54,-78.84,-13.69,6.66,32.29
11097,0.06,-0.36,0.55,-83.88,-8.93,8.67,32.39
11107,0.17,-0.48,0.55,-89.48,-1.40,5.68,32.29
11117,0.26,-0.54,0.59,-94.58,7.47,-1.94,32.29
11127,0.31,-0.57,0.64,-96.61,22.46,-10.29,32.29
11137,0.28,-0.56,0.68,-98.23,42.26,-17.80,32.39
11147,0.24,-0.60,0.75,-99.11,56.73,-24.06,32.39
11157,0.18,-0.62,0.85,-98.58,60.27,-31.56,32.39
11167,0.10,-0.65,0.93,-96.98,51.51,-38.50,32.25
11177,0.03,-0.67,0.94,-92.50,37.88,-42.69,32.34
11187,0.02,-0.69,0.91,-85.77,25.21,-42.60,32.34
11197,0.08,-0.72,0.86,-78.46,19.76,-42.24,32.34
11207,0.17,-0.77,0.78,-72.96,17.82,-45.10,32.34
11217,0.27,-0.77,0.68,-72.40,28.46,-50.03,32.34
11227,0.35,-0.83,0.61,-73.11,46.93,-57.28,32.44
11237,0.36,-0.89,0.66,-73.50,62.26,-71.77,32.34
11247,0.27,-0.84,0.69,-75.66,75.83,-90.56,32.25
11257,0.03,-0.77,0.71,-84.40,83.88,-100.02,32.39
11267,-0.22,-0.63,0.74,-95.39,84.52,-98.52,32.34
11277,-0.44,-0.55,0.81,-105.15,80.96,-89.73,32.29
11287,-0.63,-0.52,0.91,-115.71,62.24,-71.91,32.39
11297,-0.65,-0.56,0.99,-120.93,34.06,-52.76,32.29
11307,-0.58,-0.64,1.04,-121.30,11.98,-36.49,32.39
11317,-0.46,-0.73,1.04,-120.27,0.50,-25.07,32.29
11327,-0.32,-0.78,1.04,-117.80,-4.20,-18.81,32.29
11337,-0.26,-0.80,1.05,-112.69,-11.77,-17.89,32.29
11347,-0.26,-0.74,1.02,-111.15,-13.68,-14.72,32.39
11357,-0.30,-0.72,0.98,-111.74,-14.63,-7.85,32.29
11367,-0.31,-0.71,0.94,-113.73,-16.52,0.40,32.34
11377,-0.29,-0.71,0.92,-115.59,-24.35,8.52,32.34
11387,-0.21,-0.73,0.86,-117.44,-30.18,16.02,32.34
11397,-0.09,-0.82,0.82,-119.94,-34.02,19.08,32.34
11407,0.02,-0.89,0.78,-120.56,-31.34,16.15,32.34
11417,0.08,-0.95,0.77,-122.64,-23.10,11.80,32.34
11427,0.08,-0.97,0.74,-123.37,-19.33,6.75,32.39
11437,0.06,-1.00,0.74,-124.87,-16.90,2.44,32.44
11447,0.03,-1.01,0.73,-125.63,-18.34,0.40,32.34
11457,0.01,-1.03,0.69,-126.37,-16.70,-0.24,32.34
11467,-0.01,-1.04,0.67,-125.85,-15.97,0.93,32.39
11477,-0.06,-1.03,0.62,-125.89,-17.86,3.80,32.39
11487,-0.09,-1.03,0.57,-126.69,-19.68,8.76,32.39
11497,-0.07,-1.04,0.52,-129.50,-17.04,12.47,32.29
11507,-0.01,-1.10,0.49,-130.52,-13.82,14.23,32.39
11517,0.05,-1.13,0.46,-130.41,-5.22,14.08,32.29
11527,0.09,-1.16,0.46,-131.91,7.42,12.90,32.29
11537,0.11,-1.19,0.47,-131.25,22.44,11.37,32.39
11547,0.06,-1.20,0.49,-131.37,31.85,10.44,32.39
11557,0.02,-1.20,0.54,-129.40,32.26,9.16,32.34
11567,-0.00,-1.21,0.54,-125.48,26.23,7.37,32.34
11577,0.00,-1.23,0.48,-121.91,21.36,6.87,32.34
11587,-0.02,-1.24,0.44,-121.53,18.29,6.98,32.34
11597,-0.01,-1.25,0.40,-121.22,17.89,7.54,32.44
11607,0.03,-1.29,0.33,-121.56,21.57,7.42,32.34
11617,0.02,-1.30,0.29,-122.58,26.31,6.52,32.25
11627,-0.00,-1.29,0.26,-124.70,27.57,5.01,32.34
11637,-0.02,-1.31,0.27,-127.16,26.32,2.90,32.39
11647,-0.05,-1.35,0.31,-124.17,22.23,-0.49,32.34
11657,-0.10,-1.36,0.33,-116.85,15.39,-1.91,32.34
11667,-0.08,-1.33,0.34,-106.47,11.04,1.42,32.29
11677,-0.03,-1.32,0.28,-99.95,10.44,2.40,32.39
11687,0.03,-1.30,0.22,-97.86,13.24,2.09,32.29
11697,0.10,-1.27,0.14,-99.05,22.41,-0.81,32.29
11707,0.13,-1.28,0.12,-102.24,30.96,-6.53,32.39
11717,0.10,-1.27,0.12,-106.60,36.43,-12.95,32.29
11727,0.02,-1.27,0.13,-109.56,41.16,-16.21,32.39
11737,-0.07,-1.28,0.20,-110.34,37.98,-17.57,32.39
11747,-0.14,-1.29,0.27,-108.35,29.86,-18.75,32.29
11757,-0.20,-1.30,0.29,-103.37,20.11,-15.76,32.29
11767,-0.20,-1.29,0.29,-97.33,16.06,-10.60,32.29
11777,-0.17,-1.26,0.24,-88.29,18.34,-5.56,32.25
11787,-0.08,-1.22,0.13,-81.69,25.11,-2.37,32.34
11797,-0.03,-1.19,0.02,-82.75,35.07,-2.47,32.34
11807,-0.03,-1.15,-0.02,-89.91,45.51,-3.66,32.34
11817,-0.07,-1.15,0.02,-98.64,49.83,-4.92,32.25
11827,-0.16,-1.16,0.07,-106.69,43.47,-5.34,32.34
11837,-0.23,-1.19,0.14,-111.57,31.98,-4.75,32.34
11847,-0.27,-1.20,0.20,-114.56,17.82,-1.45,32.29
11857,-0.25,-1.22,0.26,-106.81,0.35,3.22,32.34
11867,-0.16,-1.20,0.19,-93.33,-4.11,6.75,32.34
11877,0.07,-1.20,0.04,-81.21,7.44,7.34,32.39
11887,0.12,-1.14,-0.05,-74.47,23.28,9.16,32.39
11897,0.16,-1.10,-0.15,-74.69,50.26,6.87,32.29
11907,0.17,-1.11,-0.18,-83.66,76.90,2.96,32.39
11917,0.11,-1.12,-0.09,-90.26,94.12,-2.79,32.39
11927,-0.02,-1.16,0.01,-91.37,91.79,-5.85,32.29
11937,-0.09,-1.16,0.07,-89.19,88.02,-5.69,32.29
11947,-0.10,-1.16,0.10,-79.73,81.97,-2.24,32.39
11957,-0.04,-1.15,0.11,-69.05,79.21,-0.35,32.39
11967,0.05,-1.18,0.08,-63.01,80.76,-4.12,32.29
11977,0.14,-1.20,0.06,-58.70,87.88,-10.46,32.48
11987,0.17,-1.21,0.02,-53.30,97.04,-17.37,32.34
11997,0.09,-1.21,-0.03,-52.20,104.61,-23.21,32.34
12007,-0.01,-1.11,-0.11,-52.35,113.13,-21.98,32.34
12017,-0.10,-1.02,-0.15,-54.15,114.81,-16.92,32.34
12027,-0.16,-1.02,-0.19,-60.02,107.36,-12.78,32.44
12037,-0.17,-1.01,-0.20,-65.48,97.44,-7.36,32.25
12047,-0.10,-1.04,-0.19,-63.18,93.73,-0.92,32.34
12057,-0.08,-1.08,-0.18,-57.82,96.21,2.75,32.39
12067,-0.10,-1.12,-0.13,-54.56,94.95,3.53,32.44
12077,-0.14,-1.12,-0.08,-50.84,83.85,4.00,32.25
12087,-0.15,-1.09,-0.09,-47.02,68.32,3.86,32.34
12097,-0.10,-1.00,-0.13,-45.73,53.22,4.43,32.39
12107,0.02,-0.98,-0.20,-46.15,44.64,5.31,32.39
12117,0.15,-0.97,-0.27,-47.98,48.40,6.09,32.39
12127,0.25,-0.98,-0.30,-50.35,60.79,4.75,32.39
12137,0.25,-1.01,-0.28,-54.95,74.38,-1.45,32.39
12147,0.19,-1.04,-0.26,-58.56,81.60,-8.60,32.39
12157,0.07,-0.98,-0.25,-65.97,76.96,-16.03,32.39
12167,-0.05,-0.94,-0.21,-79.08,58.99,-18.17,32.39
12177,-0.15,-0.89,-0.15,-91.08,32.41,-15.48,32.39
12187,-0.07,-0.93,-0.11,-91.82,11.57,-8.34,32.29
12197,0.01,-1.00,-0.11,-85.53,-7.47,-5.34,32.44
12207,0.14,-1.14,-0.07,-71.60,-15.79,-6.82,32.34
12217,0.21,-1.28,-0.11,-50.82,-22.67,-14.17,32.34
12227,0.20,-1.28,-0.21,-29.71,-19.48,-21.86,32.34
12237,0.11,-1.11,-0.36,-13.42,-9.73,-22.44,32.34
12247,0.02,-0.91,-0.52,-10.50,-1.69,-15.85,32.34
12257,0.03,-0.72,-0.62,-24.21,3.22,-8.08,32.34
12267,0.06,-0.69,-0.65,-38.50,-4.34,-0.79,32.48
12277,0.17,-0.70,-0.69,-52.82,-4.32,1.71,32.44
12287,0.16,-0.76,-0.64,-63.24,-5.36,-1.02,32.34
12297,0.12,-0.82,-0.59,-68.31,-4.78,-0.35,32.34
12307,0.07,-0.84,-0.53,-65.54,-6.47,6.87,32.29
12317,0.10,-0.85,-0.46,-52.93,3.44,13.48,32.29
12327,0.10,-0.90,-0.41,-40.08,9.73,17.11,32.39
12337,0.14,-0.92,-0.39,-33.22,10.98,15.79,32.39
12347,0.15,-0.91,-0.43,-27.54,4.41,10.64,32.39
12357,0.15,-0.84,-0.47,-29.39,-2.95,6.85,32.29
12367,0.15,-0.78,-0.53,-32.70,-9.83,7.44,32.39
12377,0.16,-0.76,-0.58,-35.54,-11.42,10.20,32.39
12387,0.20,-0.77,-0.60,-35.45,-6.23,12.95,32.39
12397,0.20,-0.81,-0.60,-36.29,-1.89,11.07,32.29
12407,0.17,-0.84,-0.54,-36.41,-3.57,8.11,32.34
12417,0.11,-0.82,-0.53,-35.37,-8.47,7.54,32.44
12427,0.09,-0.80,-0.55,-33.07,-13.24,9.76,32.34
12437,0.12,-0.80,-0.55,-31.10,-14.23,11.45,32.34
12447,0.14,-0.80,-0.57,-28.40,-13.34,13.07,32.34
12457,0.19,-0.80,-0.64,-28.11,-13.51,10.89,32.34
12467,0.16,-0.77,-0.66,-30.21,-13.54,10.03,32.34
12477,0.15,-0.76,-0.64,-32.85,-12.11,10.50,32.39
12487,0.17,-0.75,-0.63,-34.82,-9.08,11.11,32.34
12497,0.22,-0.77,-0.61,-38.14,-6.00,9.91,32.39
12507,0.22,-0.80,-0.56,-39.73,-4.17,7.05,32.39
12517,0.20,-0.86,-0.48,-35.10,-4.00,3.94,32.29
12527,0.18,-0.89,-0.42,-26.18,-5.16,0.18,32.29
12537,0.17,-0.88,-0.40,-17.86,-7.07,-2.21,32.20
12547,0.20,-0.85,-0.46,-12.27,-4.56,-4.12,32.39
12557,0.18,-0.80,-0.51,-12.17,-1.95,-4.56,32.29
12567,0.17,-0.77,-0.53,-14.37,0.58,-4.15,32.39
12577,0.17,-0.78,-0.51,-17.69,0.09,-4.11,32.39
12587,0.17,-0.81,-0.47,-20.60,-3.83,-6.21,32.39
12597,0.14,-0.85,-0.42,-19.01,-9.16,-9.25,32.25
12607,0.09,-0.87,-0.38,-13.95,-16.21,-11.47,32.25
12617,0.06,-0.85,-0.41,-8.58,-19.94,-10.92,32.44
12627,0.07,-0.84,-0.43,-3.33,-17.79,-8.29,32.34
12637,0.08,-0.84,-0.44,-0.47,-12.15,-5.53,32.34
12647,0.11,-0.83,-0.45,0.78,-8.93,-4.29,32.34
12657,0.14,-0.83,-0.47,0.63,-8.09,-5.79,32.44
12667,0.16,-0.84,-0.46,-0.89,-12.20,-8.78,32.34
12677,0.15,-0.83,-0.46,-0.93,-13.18,-11.21,32.34
12687,0.11,-0.82,-0.46,-0.14,-10.87,-11.15,32.39
12697,0.04,-0.82,-0.46,2.35,-13.92,-8.55,32.39
12707,0.05,-0.82,-0.43,0.63,-9.94,-7.73,32.39
12717,0.06,-0.83,-0.45,1.95,-9.53,-7.13,32.39
12727,0.06,-0.83,-0.42,3.31,-10.75,-7.25,32.39
12737,0.06,-0.84,-0.43,5.89,-10.93,-6.76,32.29
12747,0.05,-0.83,-0.43,7.30,-8.69,-5.36,32.39
12757,0.06,-0.83,-0.43,11.45,-8.47,-4.69,32.29
12767,0.04,-0.85,-0.42,9.05,-4.49,-6.34,32.29
12777,0.02,-0.86,-0.38,10.11,-7.11,-7.16,32.39
12787,-0.01,-0.86,-0.36,13.02,-12.08,-8.23,32.29
12797,-0.03,-0.89,-0.33,14.93,-19.19,-9.97,32.34
12807,-0.06,-0.90,-0.33,19.45,-26.92,-9.34,32.44
12817,-0.07,-0.88,-0.36,24.99,-27.15,-6.14,32.44
12827,-0.07,-0.87,-0.39,29.37,-18.66,1.92,32.25
12837,-0.11,-0.85,-0.39,33.60,-3.08,16.96,32.34
12847,-0.19,-0.86,-0.33,38.18,15.34,39.92,32.34
12857,-0.18,-0.87,-0.26,42.15,40.76,56.44,32.29
12867,-0.18,-0.86,-0.22,46.03,29.34,58.92,32.34
12877,-0.09,-0.95,-0.19,44.02,10.84,45.07,32.44
12887,-0.06,-1.03,-0.15,35.73,-21.53,24.02,32.44
12897,-0.06,-1.03,-0.13,29.18,-50.85,5.19,32.39
12907,-0.07,-1.00,-0.14,33.51,-64.95,0.12,32.39
12917,-0.03,-0.95,-0.21,46.56,-61.39,6.32,32.39
12927,0.06,-0.93,-0.32,62.66,-47.27,14.11,32.39
12937,0.06,-0.97,-0.36,65.30,-32.63,14.35,32.20
12947,0.02,-1.02,-0.36,60.79,-30.02,11.59,32.39
12957,-0.05,-1.05,-0.29,56.99,-36.95,4.99,32.29
12967,-0.09,-1.09,-0.26,59.71,-45.10,1.16,32.39
12977,-0.11,-1.09,-0.29,65.42,-49.24,0.78,32.39
12987,-0.07,-1.10,-0.34,68.41,-47.05,0.41,32.29
12997,-0.06,-1.10,-0.36,69.33,-42.55,1.45,32.29
13007,-0.05,-1.11,-0.36,72.69,-37.56,2.69,32.29
13017,-0.08,-1.12,-0.32,77.13,-31.73,1.10,32.34
13027,-0.17,-1.15,-0.25,79.59,-37.73,-1.65,32.25
13037,-0.24,-1.18,-0.19,80.61,-54.41,-5.24,32.25
13047,-0.30,-1.16,-0.18,84.64,-76.67,-6.90,32.44
13057,-0.25,-1.12,-0.26,88.47,-92.34,-5.25,32.34
13067,-0.17,-1.13,-0.32,89.01,-97.60,-4.67,32.34
13077,-0.06,-1.13,-0.38,90.08,-89.07,-2.24,32.25
13087,0.04,-1.18,-0.40,89.88,-68.02,-2.05,32.25
13097,-0.00,-1.22,-0.34,86.09,-52.37,-6.53,32.25
13107,-0.10,-1.25,-0.22,84.17,-47.68,-12.03,32.29
13117,-0.23,-1.28,-0.13,86.66,-58.64,-16.79,32.20
13127,-0.31,-1.29,-0.09,91.21,-77.30,-18.46,32.29
13137,-0.34,-1.23,-0.11,95.19,-93.98,-15.24,32.29
13147,-0.29,-1.21,-0.14,97.66,-105.07,-9.40,32.29
13157,-0.18,-1.25,-0.16,99.21,-108.72,-8.18,32.29
13167,-0.08,-1.31,-0.15,100.32,-107.80,-8.73,32.39
13177,-0.01,-1.37,-0.15,102.78,-99.28,-11.82,32.29
13187,-0.03,-1.45,-0.09,105.79,-92.46,-19.24,32.29
13197,-0.09,-1.43,-0.02,108.35,-93.31,-24.15,32.39
13207,-0.10,-1.37,-0.04,112.55,-93.37,-23.88,32.39
13217,-0.07,-1.34,-0.08,116.03,-90.72,-22.50,32.29
13227,-0.02,-1.34,-0.09,116.93,-83.11,-22.09,32.29
13237,0.01,-1.36,-0.11,115.63,-70.96,-23.42,32.34
13247,-0.03,-1.37,-0.08,115.30,-52.82,-23.94,32.25
13257,-0.10,-1.37,-0.03,116.06,-46.26,-21.60,32.34
13267,-0.17,-1.39,0.02,119.53,-36.55,-22.82,32.34
13277,-0.23,-1.35,0.07,123.28,-35.66,-21.89,32.34
13287,-0.30,-1.34,0.10,127.92,-37.59,-18.90,32.34
13297,-0.34,-1.32,0.11,129.71,-45.71,-16.24,32.25
13307,-0.33,-1.29,0.09,129.11,-59.69,-15.16,32.34
13317,-0.32,-1.28,0.06,125.85,-77.08,-15.85,32.29
13327,-0.24,-1.27,0.02,122.52,-92.49,-15.80,32.25
13337,-0.13,-1.28,-0.06,117.86,-96.63,-14.66,32.34
13347,-0.01,-1.25,-0.13,114.96,-84.84,-12.92,32.34
13357,0.07,-1.24,-0.16,111.02,-62.31,-12.96,32.29
13367,0.11,-1.22,-0.13,108.95,-47.47,-12.18,32.29
13377,0.10,-1.20,-0.12,103.89,-26.29,-11.65,32.20
13387,0.05,-1.16,-0.04,102.20,-13.76,-9.97,32.20
13397,0.00,-1.13,0.03,97.30,-10.21,-8.47,32.39
13407,-0.03,-1.14,0.14,94.09,-11.89,-8.89,32.20
13417,-0.07,-1.19,0.25,96.69,-22.31,-8.49,32.20
13427,-0.12,-1.20,0.34,102.12,-32.26,-7.07,32.29
13437,-0.12,-1.17,0.36,108.64,-41.97,-3.59,32.20
13447,-0.08,-1.15,0.34,112.06,-48.90,-0.55,32.29
13457,0.03,-1.12,0.29,108.64,-43.60,2.08,32.34
13467,0.12,-1.11,0.22,103.53,-34.72,4.37,32.34
13477,0.22,-1.09,0.19,100.49,-22.20,2.32,32.25
13487,0.29,-1.07,0.18,95.94,-9.13,-3.25,32.25
13497,0.31,-1.05,0.17,91.36,3.08,-9.89,32.34
13507,0.27,-1.05,0.24,86.44,10.26,-18.58,32.25
13517,0.17,-1.04,0.33,85.16,10.76,-25.05,32.34
13527,0.05,-1.01,0.38,83.27,8.67,-26.34,32.29
13537,-0.06,-0.99,0.45,85.40,3.16,-22.90,32.25
13547,-0.11,-0.95,0.46,85.62,-1.53,-17.01,32.25
13557,-0.11,-0.93,0.46,86.73,-7.24,-10.56,32.29
13567,-0.03,-0.92,0.43,85.45,-10.61,-6.55,32.29
13577,0.05,-0.88,0.41,81.13,-9.85,-4.93,32.29
13587,0.16,-0.88,0.39,75.07,-1.04,-6.31,32.29
13597,0.19,-0.91,0.43,68.40,4.38,-11.82,32.29
13607,0.15,-0.89,0.48,65.48,6.15,-15.24,32.29
13617,0.09,-0.88,0.49,63.47,6.02,-16.11,32.29
13627,0.05,-0.85,0.50,62.69,9.07,-15.21,32.29
13637,0.02,-0.83,0.53,66.61,7.57,-11.30,32.29
13647,0.05,-0.81,0.51,69.98,9.45,-7.89,32.29
13657,0.08,-0.79,0.50,70.50,14.17,-5.36,32.25
13667,0.09,-0.76,0.46,68.92,22.20,-2.84,32.34
13677,0.09,-0.75,0.50,63.44,26.93,-3.30,32.25
13687,0.09,-0.77,0.53,58.78,28.53,-4.56,32.25
13697,0.05,-0.76,0.56,54.17,29.27,-6.20,32.34
13707,0.04,-0.73,0.60,51.18,27.19,-6.32,32.25
13717,0.01,-0.75,0.65,50.02,26.61,-5.28,32.25
13727,0.01,-0.75,0.70,53.25,25.92,-3.01,32.25
13737,0.02,-0.79,0.75,61.92,26.34,-1.59,32.29
13747,0.02,-0.81,0.79,70.89,23.73,-0.89,32.15
13757,0.03,-0.79,0.77,75.08,16.03,-2.52,32.29
13767,0.05,-0.74,0.73,73.92,8.64,-5.79,32.29
13777,0.03,-0.66,0.69,70.72,4.56,-8.32,32.29
13787,0.03,-0.62,0.67,65.24,5.18,-9.63,32.29
13797,-0.01,-0.59,0.67,59.07,6.63,-9.15,32.29
13807,-0.03,-0.61,0.71,55.02,5.73,-7.60,32.20
13817,-0.04,-0.64,0.76,53.25,4.41,-6.40,32.29
13827,-0.06,-0.65,0.78,53.34,4.82,-3.89,32.29
13837,-0.05,-0.66,0.83,55.57,6.12,-1.31,32.29
13847,-0.03,-0.66,0.87,59.98,6.81,-0.32,32.29
13857,-0.04,-0.67,0.92,63.69,6.81,1.01,32.25
13867,-0.05,-0.67,0.95,67.16,1.21,1.68,32.25
13877,-0.04,-0.64,0.95,69.74,-4.79,1.91,32.34
13887,-0.00,-0.63,0.91,69.36,-8.99,2.20,32.34
13897,0.04,-0.61,0.86,67.36,-5.92,2.08,32.15
13907,0.06,-0.59,0.86,66.87,-3.04,1.01,32.25
13917,0.10,-0.58,0.83,65.98,3.36,-0.84,32.34
13927,0.08,-0.56,0.79,58.53,11.62,-1.16,32.34
13937,0.06,-0.56,0.85,53.65,16.78,-2.31,32.25
13947,0.01,-0.58,0.91,54.23,17.56,-2.60,32.29
13957,-0.05,-0.60,0.94,56.58,17.50,-1.28,32.29
13967,-0.07,-0.57,0.96,58.49,13.66,1.27,32.29
13977,-0.09,-0.57,0.97,60.23,2.69,1.47,32.20
13987,-0.06,-0.57,0.92,60.69,-5.82,1.71,32.29
13997,-0.02,-0.54,0.85,61.50,-12.98,1.91,32.20
14007,0.04,-0.53,0.76,61.40,-13.83,3.01,32.29
14017,0.12,-0.49,0.67,59.27,-11.04,3.39,32.29
14027,0.21,-0.44,0.58,52.12,-3.62,1.11,32.20
14037,0.30,-0.41,0.48,40.60,12.06,-3.39,32.25
14047,0.30,-0.41,0.51,28.43,31.62,-8.34,32.25
14057,0.23,-0.45,0.52,16.67,52.76,-14.23,32.34
14067,0.12,-0.50,0.64,11.94,70.12,-18.41,32.25
14077,-0.04,-0.56,0.80,15.89,77.45,-19.04,32.25
14087,-0.19,-0.59,0.94,27.02,78.52,-12.41,32.34
14097,-0.30,-0.54,1.02,37.54,71.45,-0.47,32.34
14107,-0.35,-0.48,1.06,41.69,58.61,10.40,32.25
14117,-0.33,-0.42,1.08,38.93,37.31,17.11,32.29
14127,-0.26,-0.38,1.07,33.94,15.59,19.62,32.20
14137,-0.18,-0.33,1.05,26.66,-0.37,20.98,32.20
14147,-0.08,-0.30,1.03,18.82,-5.13,21.74,32.39
14157,0.01,-0.33,1.06,13.60,-3.94,20.46,32.29
14167,0.06,-0.36,1.11,9.79,1.45,17.11,32.20
14177,0.07,-0.40,1.17,13.77,6.75,14.81,32.39
14187,0.07,-0.43,1.21,23.05,12.69,12.79,32.20
14197,0.04,-0.42,1.21,32.96,14.38,11.18,32.29
14207,0.01,-0.40,1.16,40.34,12.23,10.49,32.29
14217,-0.01,-0.37,1.11,44.18,5.28,10.79,32.20
14227,0.01,-0.37,1.06,46.20,-1.21,9.68,32.29
14237,-0.01,-0.34,1.01,47.11,-8.98,9.50,32.25
14247,0.01,-0.33,0.98,46.92,-16.98,9.28,32.34
14257,0.03,-0.35,0.95,46.37,-23.08,7.13,32.25
14267,0.04,-0.37,0.93,46.53,-29.24,4.85,32.34
14277,0.06,-0.36,0.89,48.75,-30.53,3.07,32.25
14287,0.07,-0.35,0.84,49.88,-27.66,2.27,32.25
14297,0.10,-0.33,0.81,49.31,-19.16,1.66,32.34
14307,0.11,-0.31,0.79,47.53,-9.56,-0.29,32.25
14317,0.08,-0.29,0.78,43.97,-3.02,-3.30,32.34
14327,0.05,-0.27,0.80,39.92,2.18,-6.06,32.29
14337,-0.02,-0.25,0.84,37.54,2.00,-7.33,32.29
14347,-0.08,-0.23,0.88,35.92,-1.36,-6.00,32.29
14357,-0.12,-0.21,0.89,35.36,-5.33,-3.13,32.20
14367,-0.12,-0.22,0.91,33.97,-9.47,-0.99,32.20
14377,-0.12,-0.21,0.91,32.29,-13.68,0.52,32.29
14387,-0.10,-0.20,0.90,31.50,-10.20,3.25,32.29
14397,-0.10,-0.20,0.94,31.37,-5.39,6.61,32.29
14407,-0.08,-0.20,0.98,31.33,-2.21,7.97,32.29
14417,-0.08,-0.20,0.99,30.32,-2.58,8.29,32.29
14427,-0.07,-0.16,1.00,28.55,-2.90,8.87,32.20
14437,-0.06,-0.14,1.00,24.89,-0.95,10.26,32.25
14447,-0.05,-0.12,0.99,19.18,4.21,12.08,32.25
14457,-0.04,-0.14,1.05,14.44,3.73,11.80,32.34
14467,-0.03,-0.16,1.09,13.01,-0.12,10.58,32.34
14477,-0.03,-0.16,1.11,12.93,-3.18,10.50,32.25
14487,-0.02,-0.15,1.11,16.14,-2.79,11.01,32.25
14497,0.00,-0.12,1.07,18.12,2.52,12.84,32.25
14507,0.04,-0.09,1.02,17.53,13.57,15.51,32.25
14517,0.05,-0.09,1.02,16.08,28.05,16.96,32.34
14527,0.05,-0.08,1.03,16.05,43.24,16.53,32.34
14537,0.00,-0.06,1.05,12.32,59.25,15.85,32.29
14547,-0.11,-0.07,1.10,9.53,71.10,18.53,32.29
14557,-0.27,-0.10,1.22,11.27,71.39,22.34,32.29
14567,-0.34,-0.14,1.30,15.02,46.27,26.03,32.29
14577,-0.30,-0.15,1.29,22.49,19.59,29.13,32.29
14587,-0.24,-0.09,1.22,25.27,-3.02,32.87,32.29
14597,-0.12,-0.06,1.14,23.30,-10.52,35.77,32.20
14607,0.03,-0.09,1.09,22.41,-6.84,36.11,32.29
14617,0.14,-0.16,1.06,21.74,-4.20,29.47,32.39
14627,0.17,-0.18,1.06,22.14,-7.65,20.20,32.29
14637,0.20,-0.14,0.99,22.61,-10.12,14.27,32.29
14647,0.24,-0.11,0.92,21.76,-2.49,8.15,32.25
14657,0.25,-0.14,0.91,23.53,6.52,0.85,32.25
14667,0.19,-0.15,0.90,26.43,17.57,-5.66,32.34
14677,0.08,-0.14,0.91,26.58,23.18,-9.62,32.25
14687,-0.03,-0.12,0.92,27.16,20.12,-10.98,32.34
14697,-0.14,-0.07,0.89,26.29,12.95,-9.94,32.25
14707,-0.19,-0.03,0.86,22.95,5.28,-5.50,32.29
14717,-0.18,-0.00,0.79,18.61,0.61,0.02,32.25
14727,-0.15,0.00,0.70,10.41,-4.78,3.85,32.34
14737,-0.08,-0.01,0.65,4.34,-7.15,5.45,32.20
14747,-0.01,-0.03,0.59,-2.81,-1.28,5.80,32.39
14757,0.03,-0.03,0.57,-10.50,11.66,4.49,32.20
14767,0.02,-0.04,0.63,-16.66,19.98,2.40,32.20
14777,-0.01,-0.07,0.72,-20.72,21.21,-0.53,32.29
14787,-0.03,-0.09,0.83,-21.92,17.11,-2.32,32.39
14797,-0.02,-0.09,0.89,-19.22,16.15,-3.10,32.29
14807,-0.01,-0.08,0.91,-17.07,17.76,-4.76,32.29
14817,-0.03,-0.09,0.93,-15.80,19.62,-6.18,32.29
14827,-0.09,-0.10,0.96,-15.04,18.64,-7.01,32.29
14837,-0.14,-0.10,0.96,-15.08,13.30,-6.21,32.39
14847,-0.18,-0.10,0.97,-15.02,4.26,-3.89,32.25
14857,-0.19,-0.09,0.96,-13.83,-5.15,-0.75,32.15
14867,-0.14,-0.06,0.90,-14.72,-7.54,1.85,32.34
14877,-0.11,-0.04,0.88,-18.27,-6.64,3.19,32.34
14887,-0.08,-0.04,0.88,-21.51,-1.77,4.44,32.25
14897,-0.05,-0.07,0.93,-24.03,1.30,3.76,32.25
14907,-0.03,-0.10,1.00,-24.73,2.75,1.11,32.34
14917,-0.02,-0.12,1.04,-23.25,4.64,-1.73,32.29
14927,-0.01,-0.11,1.07,-22.98,7.19,-4.27,32.25
14937,-0.03,-0.11,1.10,-20.60,9.60,-5.24,32.25
14947,-0.06,-0.12,1.14,-18.24,9.48,-6.66,32.29
14957,-0.09,-0.11,1.14,-17.10,8.52,-7.07,32.29
14967,-0.13,-0.09,1.14,-16.95,6.85,-5.07,32.29
14977,-0.16,-0.08,1.14,-16.93,3.95,-1.79,32.39
14987,-0.15,-0.09,1.15,-16.95,1.59,1.21,32.29
14997,-0.11,-0.10,1.14,-17.05,0.23,3.66,32.20
15007,-0.09,-0.12,1.16,-19.30,-5.19,3.77,32.29
15017,-0.04,-0.14,1.16,-20.00,-5.95,1.22,32.20
15027,-0.03,-0.16,1.19,-16.67,-6.52,-0.20,32.29
15037,-0.01,-0.17,1.18,-12.70,-3.33,-1.36,32.29
15047,-0.01,-0.17,1.19,-9.47,-1.77,-2.96,32.29
15057,-0.02,-0.17,1.17,-7.47,-0.37,-3.48,32.25
15067,-0.02,-0.15,1.14,-6.85,0.67,-4.08,32.34
15077,-0.04,-0.13,1.12,-7.31,0.20,-3.94,32.25
15087,-0.04,-0.12,1.08,-8.14,1.04,-3.92,32.34
15097,-0.03,-0.13,1.08,-9.51,2.87,-3.19,32.34
15107,-0.02,-0.14,1.09,-10.92,4.03,-4.78,32.34
15117,-0.03,-0.15,1.11,-10.79,3.98,-6.09,32.34
15127,-0.04,-0.15,1.10,-11.82,3.82,-6.98,32.39
15137,-0.07,-0.15,1.11,-11.05,2.99,-7.54,32.25
15147,-0.06,-0.17,1.12,-8.56,1.82,-8.46,32.25
15157,-0.08,-0.16,1.13,-6.14,1.27,-9.68,32.29
15167,-0.09,-0.12,1.11,-4.53,2.29,-9.08,32.29
15177,-0.11,-0.11,1.08,-5.82,4.64,-7.25,32.29
15187,-0.12,-0.09,1.09,-7.47,4.09,-6.24,32.29
15197,-0.12,-0.10,1.10,-8.55,3.05,-5.48,32.39
15207,-0.12,-0.11,1.11,-9.57,0.93,-6.21,32.29
15217,-0.13,-0.11,1.10,-9.25,-2.05,-6.60,32.20
15227,-0.13,-0.11,1.09,-9.15,-3.88,-6.56,32.29
15237,-0.12,-0.12,1.08,-8.05,-4.11,-5.57,32.29
15247,-0.11,-0.12,1.08,-6.09,-1.94,-4.40,32.29
15257,-0.09,-0.13,1.08,-4.49,-1.51,-4.00,32.29
15267,-0.07,-0.15,1.06,-3.79,-3.65,-4.38,32.25
15277,-0.06,-0.17,1.06,-2.73,-7.25,-5.92,32.34
15287,-0.04,-0.17,1.03,-1.85,-9.33,-7.27,32.25
15297,-0.03,-0.16,1.03,-0.35,-10.18,-8.61,32.25
15307,-0.02,-0.16,1.02,1.92,-10.38,-10.24,32.25
15317,-0.01,-0.14,1.02,4.32,-9.56,-12.24,32.25
15327,-0.02,-0.13,1.01,6.58,-11.88,-13.53,32.25
15337,-0.01,-0.12,0.99,9.39,-15.50,-14.26,32.29
15347,0.01,-0.10,0.95,10.67,-16.99,-15.42,32.25
15357,0.04,-0.08,0.92,10.02,-17.45,-17.21,32.34
15367,0.05,-0.10,0.92,7.04,-16.64,-19.59,32.34
15377,0.04,-0.12,0.96,5.04,-19.57,-21.36,32.29
15387,0.04,-0.19,1.02,5.76,-21.53,-24.27,32.39
15397,-0.00,-0.24,1.07,11.63,-26.27,-28.03,32.29
15407,-0.02,-0.25,1.05,16.37,-23.71,-28.67,32.20
15417,-0.04,-0.19,0.97,18.40,-16.95,-26.95,32.39
15427,-0.06,-0.13,0.89,13.85,-4.27,-24.84,32.29
15437,-0.08,-0.10,0.86,6.60,7.63,-22.96,32.29
15447,-0.13,-0.10,0.89,-0.47,16.78,-21.71,32.29
15457,-0.20,-0.08,0.92,-6.06,20.24,-19.51,32.29
15467,-0.26,-0.08,0.96,-11.57,17.97,-18.12,32.29
15477,-0.31,-0.07,1.00,-15.36,11.76,-14.29,32.34
15487,-0.33,-0.07,1.02,-17.79,8.44,-7.73,32.25
15497,-0.33,-0.07,1.05,-18.29,7.91,0.15,32.44
15507,-0.34,-0.08,1.08,-19.91,5.89,7.77,32.34
15517,-0.30,-0.09,1.09,-20.52,2.03,14.76,32.34
15527,-0.26,-0.10,1.11,-23.30,-1.21,19.48,32.34
15537,-0.22,-0.11,1.11,-24.85,-0.84,23.53,32.34
15547,-0.16,-0.13,1.12,-25.73,2.72,26.79,32.20
15557,-0.12,-0.16,1.13,-26.95,5.36,27.76,32.34
15567,-0.08,-0.18,1.16,-26.96,6.50,25.79,32.25
15577,-0.06,-0.20,1.19,-26.41,3.73,23.25,32.29
15587,-0.04,-0.20,1.21,-23.54,1.37,20.11,32.29
15597,-0.01,-0.19,1.21,-19.21,1.44,18.40,32.29
15607,0.04,-0.20,1.21,-15.56,4.66,16.17,32.39
15617,0.05,-0.20,1.20,-12.98,8.09,13.42,32.29
15627,0.04,-0.20,1.20,-9.95,12.43,11.37,32.39
15637,0.03,-0.19,1.18,-7.79,16.58,9.39,32.29
15647,0.01,-0.18,1.18,-6.46,16.24,7.73,32.39
15657,-0.00,-0.18,1.16,-4.99,15.60,6.44,32.39
15667,-0.01,-0.19,1.16,-4.08,14.67,6.03,32.39
15677,-0.01,-0.18,1.15,-3.83,17.65,5.85,32.39
15687,-0.01,-0.20,1.14,-4.03,21.60,5.89,32.29
15697,-0.02,-0.21,1.16,-3.25,24.56,5.74,32.34
15707,-0.03,-0.23,1.15,-1.11,24.40,5.86,32.25
