Timestamp,Acce_X,Acce_Y,Acce_Z,Gyro_X,Gyro_Y,Gyro_Z,Temp
7777,0.04,-0.41,1.09,22.08,9.37,1.63,31.82
7787,0.02,-0.42,1.12,22.63,9.45,1.89,31.92
7797,0.03,-0.43,1.13,25.21,6.87,0.00,31.87
7807,0.02,-0.43,1.13,28.23,3.79,-1.16,31.87
7817,0.02,-0.40,1.11,30.93,0.52,-0.50,31.78
7827,0.03,-0.39,1.07,31.86,-1.54,1.73,31.87
7837,0.04,-0.39,1.08,32.27,-6.38,1.85,31.78
7847,0.06,-0.40,1.05,34.38,-10.43,-0.02,31.87
7857,0.08,-0.40,1.01,35.68,-15.25,-2.90,31.87
7867,0.09,-0.36,0.98,34.44,-19.22,-6.05,31.78
7877,0.09,-0.34,0.95,31.97,-21.71,-8.79,31.82
7887,0.08,-0.34,0.94,29.21,-23.89,-11.16,31.82
7897,0.07,-0.35,0.93,29.16,-26.67,-12.75,31.82
7907,0.09,-0.35,0.92,31.02,-27.05,-14.21,31.82
7917,0.08,-0.36,0.91,32.29,-30.75,-16.41,31.82
7927,0.11,-0.34,0.89,33.47,-34.11,-19.24,31.87
7937,0.14,-0.31,0.81,35.65,-35.77,-22.32,31.73
7947,0.14,-0.29,0.76,36.37,-36.64,-25.44,31.87
7957,0.17,-0.24,0.68,32.35,-35.82,-28.24,31.78
7967,0.18,-0.20,0.61,26.15,-28.03,-29.25,31.78
7977,0.18,-0.18,0.56,19.66,-16.38,-28.44,31.78
7987,0.16,-0.18,0.56,13.34,-4.72,-27.13,31.78
7997,0.12,-0.19,0.56,6.47,2.23,-27.21,31.87
8007,0.07,-0.21,0.56,-1.08,4.76,-28.60,31.87
8017,-0.00,-0.19,0.56,-8.02,3.07,-29.44,31.97
8027,-0.04,-0.18,0.53,-10.81,-2.47,-27.79,31.92
8037,-0.05,-0.14,0.49,-13.97,-4.56,-25.02,31.82
8047,-0.05,-0.10,0.43,-20.93,-6.60,-22.20,31.82
8057,-0.05,-0.08,0.42,-32.20,-5.08,-19.05,31.82
8067,-0.04,-0.04,0.40,-44.23,-2.87,-13.63,31.92
8077,-0.05,-0.08,0.41,-55.98,3.02,-8.32,31.82
8087,-0.07,-0.13,0.45,-64.93,8.63,-1.45,31.82
8097,-0.07,-0.18,0.49,-70.53,10.90,4.73,31.87
8107,-0.06,-0.24,0.51,-71.63,11.01,8.70,31.87
8117,-0.04,-0.29,0.53,-70.60,5.02,11.34,31.87
8127,0.00,-0.30,0.53,-71.50,0.49,11.39,31.87
8137,0.06,-0.31,0.49,-75.02,3.48,11.74,31.78
8147,0.09,-0.30,0.50,-81.22,12.87,12.35,31.87
8157,0.09,-0.34,0.53,-89.36,24.78,12.76,31.78
8167,0.06,-0.38,0.60,-95.18,31.73,13.82,31.78
8177,0.03,-0.45,0.64,-97.39,33.79,15.02,31.82
8187,0.02,-0.52,0.69,-95.44,27.77,14.99,31.92
8197,0.04,-0.54,0.73,-93.73,14.93,14.66,31.82
8207,0.09,-0.59,0.75,-93.18,2.64,15.18,31.82
8217,0.24,-0.68,0.76,-88.55,0.72,17.69,31.73
8227,0.39,-0.76,0.79,-79.74,6.56,16.63,31.87
8237,0.47,-0.83,0.85,-69.94,16.85,7.18,31.73
8247,0.52,-0.79,0.96,-69.71,17.15,-8.92,31.97
8257,0.45,-0.75,0.93,-61.51,12.56,-28.89,31.87
8267,0.34,-0.69,0.91,-65.30,0.63,-44.76,31.87
8277,0.27,-0.62,0.87,-64.89,-1.10,-48.29,31.87
8287,0.17,-0.60,0.88,-66.87,5.63,-48.24,31.87
8297,0.07,-0.61,0.88,-72.52,19.59,-42.56,31.78
8307,-0.03,-0.62,0.93,-74.61,24.06,-35.77,31.87
8317,-0.12,-0.63,0.98,-68.49,9.83,-28.85,31.87
8327,-0.14,-0.62,0.91,-57.94,-12.02,-22.67,31.82
8337,-0.09,-0.60,0.85,-55.69,-30.41,-17.57,31.82
8347,0.02,-0.56,0.70,-58.78,-41.94,-12.47,31.82
8357,0.11,-0.54,0.61,-65.18,-39.95,-10.79,31.82
8367,0.15,-0.52,0.57,-77.59,-30.64,-10.84,31.82
8377,0.14,-0.56,0.61,-90.08,-21.02,-10.46,31.92
8387,0.06,-0.63,0.69,-99.27,-10.50,-9.28,31.73
8397,-0.04,-0.69,0.80,-103.07,-9.02,-6.84,31.78
8407,-0.13,-0.72,0.86,-99.02,-13.56,0.11,31.78
8417,-0.16,-0.76,0.87,-90.56,-20.38,9.62,31.87
8427,-0.14,-0.78,0.83,-85.47,-28.26,18.55,31.78
8437,-0.08,-0.77,0.77,-85.69,-32.76,25.77,31.78
8447,0.00,-0.80,0.71,-88.89,-34.43,28.03,31.78
8457,0.33,-1.81,2.03,39.02,13.62,3.28,31.78
8467,0.47,-1.42,1.16,99.27,-28.55,11.39,31.78
8477,-0.11,-0.76,0.61,-42.98,-129.33,21.30,31.92
8487,0.68,-0.11,-1.27,-213.51,-18.32,19.07,31.82
8497,0.00,-0.36,0.70,-199.34,4.46,35.54,31.82
8507,0.08,-0.76,0.78,-146.81,4.14,54.17,31.82
8517,0.16,-1.29,0.68,-110.38,12.21,49.69,31.82
8527,0.31,-1.25,0.73,-94.14,44.03,35.92,31.87
8537,0.00,-1.22,0.98,-64.31,12.37,15.07,31.92
8547,0.02,-1.11,0.93,-72.67,20.21,8.87,31.82
8557,-0.05,-0.93,0.82,-90.43,20.23,9.97,31.87
8567,-0.09,-0.87,0.73,-101.80,13.53,21.02,31.87
8577,-0.03,-0.82,0.64,-108.15,9.53,31.18,31.87
8587,0.01,-0.79,0.58,-115.85,-0.70,35.86,31.87
8597,0.07,-0.79,0.58,-126.70,-5.25,36.92,31.87
8607,0.07,-0.89,0.62,-130.75,-12.55,36.56,31.78
8617,0.07,-1.01,0.69,-129.51,-15.33,37.73,31.87
8627,0.08,-1.12,0.80,-118.58,-24.12,34.89,31.82
8637,0.13,-1.25,0.83,-100.44,-31.82,29.01,31.92
8647,0.19,-1.26,0.79,-86.81,-38.24,21.24,31.82
8657,0.23,-1.19,0.70,-74.18,-35.42,16.73,31.82
8667,0.23,-1.10,0.59,-60.78,-25.59,18.31,31.92
8677,0.23,-1.03,0.50,-57.24,-17.89,20.35,31.82
8687,0.24,-0.97,0.41,-63.04,-12.41,19.05,31.82
8697,0.28,-0.98,0.36,-70.00,-9.21,15.94,31.87
8707,0.31,-1.01,0.34,-76.87,-7.11,11.48,31.78
8717,0.27,-1.03,0.38,-81.50,-7.07,6.79,31.78
8727,0.25,-1.05,0.37,-81.01,-3.60,4.47,31.78
8737,0.22,-1.07,0.38,-78.18,-0.92,1.11,31.78
8747,0.17,-1.08,0.41,-77.48,3.24,-1.37,31.78
8757,0.12,-1.10,0.41,-75.07,8.79,-0.61,31.78
8767,0.06,-1.09,0.43,-69.56,11.31,4.61,31.78
8777,0.01,-1.07,0.43,-66.73,9.62,10.27,31.82
8787,0.00,-1.07,0.43,-67.37,3.62,14.09,31.82
8797,0.02,-1.08,0.42,-70.08,-6.76,14.20,31.92
8807,0.04,-1.10,0.41,-71.51,-19.34,11.73,31.82
8817,0.12,-1.12,0.37,-71.47,-26.17,7.19,31.92
8827,0.18,-1.11,0.33,-71.39,-24.58,3.53,31.78
8837,0.20,-1.10,0.29,-71.01,-14.18,4.40,31.82
8847,0.24,-1.18,0.23,-62.05,-19.10,8.43,31.78
8857,0.18,-1.00,0.36,-68.60,-3.53,6.58,31.87
8867,0.19,-1.11,0.29,-61.71,18.67,10.35,31.87
8877,-0.40,-1.40,0.59,-59.59,-1.73,1.33,31.87
8887,-0.04,-1.13,0.42,-57.16,18.37,7.39,31.87
8897,0.12,-1.12,0.41,-60.43,45.04,17.73,31.87
8907,0.08,-1.07,0.28,-64.66,16.32,3.98,31.87
8917,0.13,-1.11,0.27,-61.05,0.70,0.90,31.87
8927,0.09,-1.17,0.26,-49.71,-10.35,-2.00,31.92
8937,0.11,-1.10,0.27,-53.50,-4.46,-0.17,31.82
8947,0.25,-1.17,0.19,-48.93,10.18,-0.96,31.82
8957,0.32,-1.23,0.17,-37.80,28.66,-0.95,31.73
8967,0.31,-1.23,0.24,-33.79,49.36,-2.21,31.82
8977,0.28,-1.20,0.25,-29.42,63.57,-2.99,31.82
8987,0.21,-1.16,0.28,-23.88,76.21,-7.05,31.82
8997,0.16,-1.21,0.39,-20.85,86.73,-13.19,31.78
9007,-0.01,-1.17,0.41,-17.01,75.11,-17.10,31.87
9017,-0.01,-1.16,0.33,-17.51,70.70,-16.85,31.87
9027,0.03,-1.06,0.20,-19.18,67.07,-13.21,31.78
9037,0.06,-1.06,0.15,-17.91,72.58,-7.19,31.87
9047,0.21,-1.04,0.04,-28.69,84.72,1.77,31.87
9057,0.10,-1.09,0.07,-26.00,93.13,-0.46,31.78
9067,0.15,-1.16,0.11,-32.96,110.21,0.43,31.87
9077,0.13,-1.08,0.08,-40.85,106.27,-6.50,31.73
9087,0.15,-1.14,0.10,-28.37,127.95,-2.38,31.92
9097,0.03,-1.10,0.19,-31.98,127.60,-8.43,31.82
9107,-0.08,-1.08,0.08,-31.16,96.44,-13.04,31.82
9117,-0.24,-1.08,0.21,-37.08,64.64,-20.06,31.82
9127,-0.13,-0.90,0.19,-58.93,49.97,-21.66,31.78
9137,-0.05,-1.16,0.21,-38.73,72.41,-24.17,31.82
9147,-0.36,-1.22,0.31,-39.62,28.78,5.60,31.78
9157,-0.34,-0.78,0.01,-84.02,0.95,-10.17,31.78
9167,-0.29,-1.04,0.09,-57.54,8.66,5.21,31.87
9177,-0.77,-1.25,0.71,-91.34,-23.13,-32.96,31.87
9187,-1.38,-1.64,2.33,-151.08,-225.15,-84.47,31.87
9197,-0.62,-1.32,1.18,-48.81,-378.20,-30.55,31.78
9207,1.26,-0.80,-0.63,12.34,-67.80,47.62,31.87
9217,1.76,-1.56,-0.35,82.84,-210.40,-14.76,31.78
9227,0.74,-1.29,0.17,114.23,-113.37,31.73,31.82
9237,0.62,-0.85,-0.34,81.27,-53.19,27.40,31.82
9247,0.37,-0.76,-0.37,1.91,58.44,10.12,31.73
9257,0.34,-0.89,-0.23,-59.51,101.60,0.70,31.82
9267,0.16,-0.95,-0.01,-73.60,82.43,-5.50,31.82
9277,-0.06,-1.06,0.16,-69.85,57.25,-8.46,31.82
9287,-0.14,-1.14,0.17,-41.98,64.70,3.54,31.82
9297,-0.17,-1.04,0.02,-24.46,79.37,20.20,31.78
9307,-0.21,-1.01,0.12,-25.15,86.00,31.77,31.87
9317,-0.23,-1.04,0.09,-21.01,69.50,38.64,31.87
9327,-0.17,-1.03,0.03,-16.76,43.27,38.81,31.78
9337,-0.02,-0.98,-0.23,-7.95,37.69,42.93,31.87
9347,0.08,-0.95,-0.30,-16.06,35.92,38.55,31.87
9357,0.12,-0.96,-0.23,-40.61,35.62,27.76,31.87
9367,0.17,-1.02,-0.07,-53.74,35.88,23.39,31.92
9377,0.25,-1.05,-0.21,-54.43,32.20,16.09,31.82
9387,0.23,-1.18,-0.11,-30.95,51.53,17.69,31.92
9397,0.23,-1.12,-0.13,-12.55,71.89,23.51,31.92
9407,0.14,-1.10,-0.10,-7.36,76.87,26.49,31.82
9417,0.17,-1.17,-0.07,-0.49,89.77,22.66,31.82
9427,0.05,-1.17,0.03,14.79,88.38,20.18,31.78
9437,0.14,-1.16,0.05,32.14,87.01,17.31,31.82
9447,0.13,-1.12,-0.01,41.18,75.88,12.89,31.78
9457,0.22,-1.07,-0.09,44.15,75.54,6.31,31.87
9467,0.21,-1.06,-0.10,43.01,80.49,2.06,31.78
9477,0.12,-1.02,-0.06,30.26,74.40,0.53,31.78
9487,0.09,-1.06,0.03,34.11,95.27,4.02,31.78
9497,0.07,-1.16,0.13,52.53,92.73,11.98,31.87
9507,0.01,-1.17,0.15,69.36,86.56,31.05,31.87
9517,0.11,-1.21,0.07,95.48,106.34,51.79,31.82
9527,0.04,-1.23,0.18,120.24,118.18,64.21,31.82
9537,0.08,-1.28,0.22,130.84,104.21,50.32,31.82
9547,0.13,-1.24,0.12,116.69,64.00,2.93,31.73
9557,-0.04,-1.09,0.12,85.51,11.33,-52.38,31.82
9567,0.11,-0.79,-0.09,55.98,11.69,-62.78,31.73
9577,-0.01,-0.59,-0.16,28.09,-2.99,-58.44,31.73
9587,-0.03,-0.57,-0.22,2.93,2.20,-48.08,31.78
9597,-0.09,-0.66,-0.12,-20.69,18.82,-34.34,31.78
9607,0.03,-0.84,-0.15,-35.73,49.53,-15.66,31.87
9617,0.10,-1.04,0.03,-30.32,81.40,-7.27,31.78
9627,0.13,-1.20,0.23,-24.26,91.27,-13.92,31.87
9637,0.00,-1.10,0.15,-30.32,65.45,-20.58,31.78
9647,-0.01,-1.16,0.25,-15.95,95.69,-23.48,31.87
9657,-0.13,-1.03,0.31,-13.21,54.50,-22.96,31.78
9667,-0.10,-0.90,0.17,-33.74,38.41,-26.08,31.73
9677,-0.16,-0.86,0.18,-52.38,6.02,-26.52,31.73
9687,-0.15,-0.82,0.09,-70.38,-18.67,-23.02,31.73
9697,-0.21,-0.83,0.06,-86.79,-43.48,-19.21,31.82
9707,-0.22,-0.83,0.07,-93.98,-51.97,-7.57,31.82
9717,-0.18,-0.89,0.02,-94.37,-55.02,4.92,31.82
9727,-0.13,-0.97,0.03,-81.73,-50.49,19.21,31.78
9737,-0.08,-0.96,0.06,-74.03,-57.88,26.35,31.82
9747,0.02,-0.99,-0.00,-78.34,-64.12,23.66,31.78
9757,0.10,-1.00,-0.05,-89.04,-66.58,19.48,31.78
9767,0.15,-1.01,-0.10,-107.28,-60.18,13.05,31.78
9777,0.20,-1.04,-0.14,-122.24,-45.62,6.64,31.78
9787,0.21,-1.05,-0.14,-129.74,-23.44,1.68,31.97
9797,0.16,-1.06,-0.14,-136.05,-7.82,-0.63,31.87
9807,0.08,-1.06,-0.09,-141.83,-0.60,-2.09,31.87
9817,0.02,-1.08,-0.06,-140.06,-1.94,-3.71,31.78
9827,-0.06,-1.11,-0.04,-126.61,-17.69,-4.37,31.78
9837,-0.06,-1.12,-0.04,-112.70,-33.97,-4.96,31.92
9847,-0.03,-1.10,-0.08,-102.72,-49.56,-5.88,31.82
9857,0.03,-1.03,-0.22,-105.28,-55.53,-4.00,31.73
9867,0.06,-0.97,-0.28,-113.02,-47.10,-2.02,31.82
9877,0.06,-0.99,-0.34,-117.59,-43.19,0.12,31.73
9887,0.01,-1.06,-0.27,-119.66,-28.81,-1.63,31.82
9897,-0.07,-1.10,-0.23,-118.99,-13.83,-2.98,31.78
9907,-0.15,-1.17,-0.13,-106.64,4.49,-0.56,31.82
9917,-0.22,-1.22,0.00,-85.85,7.68,0.24,31.78
9927,-0.29,-1.24,0.02,-64.00,5.73,-0.38,31.97
9937,-0.27,-1.18,-0.04,-45.73,-1.95,1.39,31.78
9947,-0.29,-1.06,-0.09,-41.02,-17.18,2.41,31.87
9957,-0.25,-0.97,-0.20,-45.22,-26.15,5.53,31.87
9967,-0.20,-0.92,-0.30,-58.43,-28.53,12.34,31.87
9977,-0.11,-0.88,-0.40,-75.65,-25.69,20.09,31.78
9987,-0.06,-0.86,-0.44,-96.76,-22.15,25.39,31.87
9997,-0.04,-0.85,-0.52,-112.58,-20.41,31.24,31.87
10007,0.03,-1.00,-0.46,-106.90,-11.62,30.79,31.82
10017,0.04,-1.12,-0.38,-85.21,-7.65,26.78,31.92
10027,0.04,-1.12,-0.35,-62.11,-0.41,26.15,31.82
10037,0.04,-1.02,-0.37,-53.33,0.61,23.74,31.82
10047,0.08,-0.93,-0.45,-53.63,-4.70,19.62,31.82
10057,0.16,-0.87,-0.55,-59.31,-5.34,18.24,31.82
10067,0.20,-0.81,-0.64,-74.79,-8.08,14.55,31.78
10077,0.24,-0.76,-0.72,-92.43,0.35,12.55,31.92
10087,0.21,-0.77,-0.73,-114.05,9.76,11.48,31.82
10097,0.13,-0.87,-0.65,-126.18,14.40,6.43,31.87
10107,0.10,-0.95,-0.58,-112.34,24.47,5.97,31.87
10117,0.08,-1.00,-0.46,-95.51,23.59,4.90,31.87
10127,0.01,-0.97,-0.41,-82.52,7.74,2.55,31.78
10137,0.02,-0.94,-0.40,-73.16,3.34,1.30,31.87
10147,0.02,-0.95,-0.38,-63.73,-4.72,-1.92,31.78
10157,0.07,-0.92,-0.42,-52.49,-1.95,-2.31,31.78
10167,0.07,-0.92,-0.42,-40.95,-4.14,-4.34,31.87
10177,0.07,-0.90,-0.44,-33.68,-1.98,-5.16,31.78
10187,0.05,-0.91,-0.45,-29.05,2.08,-6.55,31.78
10197,-0.01,-0.92,-0.44,-22.58,3.65,-8.82,31.87
10207,-0.07,-0.92,-0.43,-14.61,1.01,-11.42,31.92
10217,-0.08,-0.92,-0.41,-9.19,-5.68,-12.81,31.82
10227,-0.08,-0.90,-0.41,-9.57,-9.60,-12.26,31.73
10237,-0.04,-0.90,-0.44,-8.02,-8.67,-11.57,31.92
10247,-0.01,-0.90,-0.43,-6.79,-7.85,-10.92,31.73
10257,0.02,-0.93,-0.44,-8.03,-6.11,-10.72,31.73
10267,0.02,-0.93,-0.45,-7.02,-0.11,-10.93,31.92
10277,-0.04,-0.94,-0.43,-2.38,7.16,-10.60,31.87
10287,-0.09,-0.94,-0.40,5.19,7.08,-8.99,31.92
10297,-0.13,-0.92,-0.39,10.93,4.29,-8.52,31.78
10307,-0.14,-0.91,-0.40,14.21,-2.05,-8.24,31.78
10317,-0.10,-0.88,-0.44,14.32,-6.82,-7.73,31.87
10327,-0.03,-0.87,-0.48,11.74,-6.47,-7.08,31.78
10337,0.01,-0.87,-0.49,10.37,-2.49,-5.44,31.87
10347,0.04,-0.88,-0.50,11.25,5.11,-4.17,31.78
10357,0.00,-0.90,-0.46,14.32,10.47,-3.89,31.87
10367,-0.04,-0.91,-0.42,17.18,9.80,-4.38,31.87
10377,-0.08,-0.90,-0.41,17.85,4.44,-4.69,31.87
10387,-0.09,-0.91,-0.40,19.36,-2.14,-5.25,31.82
10397,-0.05,-0.92,-0.40,18.84,-10.11,-8.49,31.82
10407,-0.03,-0.97,-0.41,20.08,-17.63,-14.64,31.82
10417,-0.05,-0.97,-0.40,19.80,-27.95,-22.14,31.82
10427,-0.06,-0.94,-0.40,23.11,-33.28,-24.73,31.92
10437,0.01,-0.89,-0.45,29.69,-22.90,-17.97,31.82
10447,-0.05,-0.93,-0.39,33.63,-19.30,-12.64,31.87
10457,-0.05,-0.94,-0.38,33.89,-13.45,-6.76,31.92
10467,-0.05,-0.97,-0.33,32.69,-10.99,-6.41,31.87
10477,-0.09,-1.01,-0.27,33.50,-18.18,-11.25,31.87
10487,-0.11,-1.03,-0.23,35.71,-29.37,-17.60,31.87
10497,-0.14,-1.00,-0.24,39.18,-41.15,-21.31,31.87
10507,-0.15,-0.99,-0.23,44.14,-48.99,-21.05,31.87
10517,-0.09,-0.99,-0.24,51.37,-49.28,-15.25,31.87
10527,-0.02,-1.01,-0.28,60.99,-39.62,-6.89,31.87
10537,-0.00,-1.07,-0.24,72.79,-30.38,-0.76,31.92
10547,0.01,-1.12,-0.19,80.38,-29.19,0.11,31.92
10557,0.02,-1.16,-0.18,83.97,-31.15,-5.65,31.73
10567,-0.03,-1.19,-0.17,83.04,-39.65,-16.89,31.82
10577,-0.04,-1.16,-0.21,78.27,-46.50,-28.27,31.73
10587,-0.06,-1.13,-0.23,74.56,-54.85,-35.47,31.82
10597,-0.08,-1.09,-0.27,74.17,-62.75,-39.80,31.82
10607,-0.08,-1.05,-0.34,73.16,-65.18,-38.50,31.87
10617,-0.02,-1.02,-0.41,72.95,-56.00,-32.23,31.87
10627,0.06,-1.00,-0.42,67.83,-36.50,-25.68,31.78
10637,0.03,-1.02,-0.41,65.66,-26.44,-19.80,31.78
10647,-0.02,-1.04,-0.36,62.27,-15.56,-16.06,31.87
10657,-0.07,-1.10,-0.29,58.03,-11.88,-15.62,31.78
10667,-0.13,-1.13,-0.22,61.10,-20.46,-16.43,31.87
10677,-0.15,-1.15,-0.17,66.17,-31.62,-19.45,31.87
10687,-0.14,-1.15,-0.16,71.89,-41.53,-22.43,31.82
10697,-0.13,-1.12,-0.16,73.86,-49.30,-25.22,31.82
10707,-0.12,-1.11,-0.18,73.24,-56.56,-27.88,31.82
10717,-0.06,-1.14,-0.19,71.31,-58.09,-27.30,31.82
10727,0.00,-1.15,-0.24,70.52,-55.15,-25.57,31.82
10737,0.04,-1.22,-0.25,70.96,-37.40,-23.82,31.92
10747,0.04,-1.24,-0.18,71.10,-26.98,-23.30,31.87
10757,0.07,-1.27,-0.17,76.81,-20.85,-23.53,31.82
10767,0.04,-1.30,-0.12,80.85,-22.14,-27.50,31.87
10777,0.04,-1.32,-0.09,86.00,-26.93,-31.65,31.87
10787,0.03,-1.31,-0.10,93.51,-29.88,-34.55,31.78
10797,0.03,-1.29,-0.10,96.84,-32.47,-36.40,31.87
10807,0.03,-1.29,-0.13,96.69,-35.68,-39.37,31.87
10817,0.06,-1.28,-0.15,94.96,-39.71,-44.27,31.78
10827,0.07,-1.28,-0.14,90.95,-45.82,-52.35,31.78
10837,0.05,-1.27,-0.16,86.00,-49.02,-59.48,31.87
10847,0.02,-1.29,-0.13,84.87,-49.76,-65.92,31.82
10857,-0.05,-1.28,-0.06,80.06,-59.88,-70.53,31.73
10867,-0.10,-1.26,-0.06,81.39,-70.46,-73.34,31.82
10877,-0.11,-1.25,-0.07,82.89,-82.81,-76.06,31.73
10887,-0.10,-1.26,-0.07,85.62,-99.88,-78.41,31.73
10897,-0.01,-1.22,-0.13,93.07,-105.88,-79.07,31.82
10907,0.08,-1.15,-0.20,96.87,-100.32,-77.11,31.82
10917,0.13,-1.10,-0.25,98.12,-80.93,-67.11,31.78
10927,0.11,-1.09,-0.22,97.85,-64.15,-55.18,31.87
10937,0.13,-1.08,-0.20,91.37,-43.36,-43.50,31.78
10947,0.12,-1.10,-0.13,86.43,-30.93,-37.51,31.87
10957,0.13,-1.10,-0.09,79.05,-33.51,-39.27,31.78
10967,0.12,-1.11,-0.02,77.13,-37.15,-42.90,31.87
10977,0.14,-1.11,0.01,74.96,-45.56,-43.74,31.87
10987,0.16,-1.10,0.01,74.84,-40.87,-40.95,31.78
10997,0.20,-1.14,0.04,77.83,-30.50,-35.88,31.82
11007,0.24,-1.13,0.05,78.02,-17.79,-31.34,31.82
11017,0.29,-1.13,0.07,77.71,-8.14,-29.05,31.73
11027,0.29,-1.14,0.09,76.85,-0.64,-28.69,31.73
11037,0.27,-1.14,0.13,75.89,8.38,-27.54,31.82
11047,0.30,-1.09,0.15,74.23,11.37,-23.82,31.87
11057,0.28,-1.09,0.15,72.27,17.69,-21.71,31.82
11067,0.29,-1.08,0.16,68.64,24.85,-17.86,31.78
11077,0.28,-1.11,0.24,66.37,26.08,-18.40,31.78
11087,0.25,-1.18,0.32,71.59,24.26,-23.25,31.78
11097,0.22,-1.20,0.37,77.10,20.89,-27.18,31.78
11107,0.15,-1.19,0.41,84.70,10.44,-32.17,31.78
11117,0.12,-1.18,0.43,93.05,0.55,-36.67,31.87
11127,0.10,-1.10,0.39,99.48,-9.54,-37.34,31.78
11137,0.12,-0.99,0.30,101.47,-10.96,-31.40,31.78
11147,0.18,-0.95,0.23,103.83,-4.81,-24.47,31.82
11157,0.25,-0.89,0.22,96.44,16.32,-16.63,31.82
11167,0.24,-0.91,0.28,86.87,26.64,-12.81,31.82
11177,0.19,-0.95,0.38,78.73,31.83,-10.95,31.82
11187,0.16,-1.01,0.50,78.31,24.79,-9.65,31.73
11197,0.16,-1.05,0.58,83.74,10.50,-11.30,31.82
11207,0.23,-1.06,0.59,91.13,1.85,-11.88,31.73
11217,0.30,-1.04,0.54,98.75,1.05,-11.39,31.68
11227,0.38,-1.00,0.52,103.69,6.79,-10.67,31.87
11237,0.44,-0.96,0.48,104.78,17.48,-10.20,31.78
11247,0.43,-0.92,0.47,102.82,29.68,-9.01,31.87
11257,0.45,-0.89,0.43,98.90,38.02,-9.53,31.78
11267,0.40,-0.87,0.47,93.47,44.34,-11.98,31.78
11277,0.34,-0.88,0.53,91.65,43.82,-13.30,31.82
11287,0.33,-0.89,0.60,91.30,38.47,-15.37,31.82
11297,0.31,-0.89,0.61,91.91,24.58,-18.87,31.82
11307,0.32,-0.86,0.62,92.50,20.53,-22.64,31.82
11317,0.28,-0.86,0.64,93.51,11.08,-22.53,31.73
11327,0.30,-0.82,0.64,94.44,7.73,-18.98,31.82
11337,0.35,-0.77,0.60,94.02,15.73,-14.85,31.82
11347,0.37,-0.76,0.60,94.55,25.62,-10.63,31.78
11357,0.38,-0.77,0.64,93.21,30.38,-10.11,31.78
11367,0.40,-0.80,0.68,89.89,35.19,-13.89,31.87
11377,0.37,-0.80,0.70,88.53,27.01,-18.92,31.78
11387,0.37,-0.78,0.70,85.79,25.37,-22.69,31.78
11397,0.37,-0.77,0.70,81.65,24.12,-27.13,31.78
11407,0.36,-0.78,0.71,81.27,25.04,-30.35,31.68
11417,0.35,-0.76,0.70,81.66,25.62,-32.44,31.82
11427,0.35,-0.74,0.71,84.69,24.64,-34.75,31.82
11437,0.34,-0.72,0.69,86.78,26.47,-37.19,31.82
11447,0.33,-0.68,0.68,85.77,31.01,-36.38,31.82
11457,0.32,-0.65,0.68,84.76,33.74,-35.83,31.73
11467,0.29,-0.62,0.71,82.44,35.88,-35.95,31.82
11477,0.28,-0.62,0.72,81.31,33.83,-37.02,31.87
11487,0.26,-0.60,0.76,80.96,28.02,-38.85,31.87
11497,0.26,-0.58,0.72,80.35,22.69,-39.13,31.87
11507,0.24,-0.57,0.75,82.98,17.92,-39.04,31.78
11517,0.28,-0.59,0.72,88.47,22.60,-36.18,31.78
11527,0.29,-0.54,0.74,89.77,24.82,-32.49,31.68
11537,0.34,-0.54,0.70,91.37,29.28,-32.23,31.78
11547,0.32,-0.56,0.72,85.45,33.25,-38.37,31.78
11557,0.31,-0.50,0.71,78.75,38.24,-41.28,31.82
11567,0.25,-0.46,0.70,75.53,40.98,-40.70,31.73
11577,0.20,-0.45,0.71,70.98,40.26,-39.40,31.73
11587,0.17,-0.42,0.73,65.08,38.61,-36.05,31.82
11597,0.15,-0.38,0.71,58.85,39.59,-32.46,31.82
11607,0.14,-0.39,0.73,57.57,41.60,-26.11,31.87
11617,0.13,-0.41,0.75,65.02,50.24,-14.32,31.73
11627,0.09,-0.41,0.83,75.62,60.17,0.35,31.78
11637,0.07,-0.39,0.83,86.08,62.47,19.80,31.78
11647,0.06,-0.33,0.81,90.69,56.61,30.17,31.68
11657,0.10,-0.30,0.71,88.27,40.20,24.21,31.78
11667,0.22,-0.24,0.59,73.94,19.98,4.93,31.87
11677,0.29,-0.20,0.50,49.30,11.44,-17.27,31.68
11687,0.30,-0.20,0.50,28.50,7.37,-31.50,31.78
11697,0.29,-0.20,0.55,16.79,6.35,-38.63,31.78
11707,0.26,-0.20,0.57,14.76,19.39,-37.63,31.82
11717,0.25,-0.20,0.61,14.76,40.67,-30.90,31.73
11727,0.15,-0.28,0.75,20.49,52.81,-24.00,31.82
11737,0.07,-0.32,0.89,22.72,64.20,-19.53,31.73
11747,-0.00,-0.30,0.99,22.73,64.41,-16.67,31.82
11757,-0.06,-0.31,1.07,29.91,58.99,-10.46,31.82
11767,-0.13,-0.29,1.13,41.44,37.69,-4.00,31.82
11777,-0.11,-0.29,1.12,47.82,17.22,-3.30,31.78
11787,-0.05,-0.28,1.07,48.89,1.79,-5.79,31.78
11797,0.01,-0.26,1.01,47.65,-6.17,-5.98,31.78
11807,0.09,-0.22,0.97,47.73,-7.19,-5.74,31.87
11817,0.17,-0.18,0.91,45.37,-4.02,-6.00,31.78
11827,0.20,-0.13,0.87,38.64,4.66,-8.17,31.87
11837,0.21,-0.13,0.88,32.73,15.88,-10.14,31.78
11847,0.17,-0.13,0.93,27.66,26.21,-11.56,31.78
11857,0.10,-0.15,0.97,26.38,35.22,-8.92,31.78
11867,0.04,-0.17,1.02,27.88,35.36,-4.60,31.73
11877,0.01,-0.17,1.07,29.16,28.70,-2.82,31.82
11887,0.01,-0.16,1.05,31.42,21.85,-3.42,31.82
11897,0.03,-0.12,1.03,30.61,18.34,-5.28,31.82
11907,0.03,-0.09,1.02,27.40,16.14,-3.79,31.73
11917,0.04,-0.08,1.00,21.04,16.27,-1.16,31.82
11927,0.04,-0.10,1.01,13.53,13.92,0.38,31.73
11937,0.02,-0.12,1.04,7.66,7.02,1.02,31.82
11947,0.02,-0.12,1.05,5.28,0.08,2.29,31.78
11957,0.06,-0.12,1.02,4.96,-4.35,4.26,31.78
11967,0.11,-0.13,1.00,5.88,-2.85,5.16,31.78
11977,0.14,-0.13,0.99,6.75,4.81,6.26,31.78
11987,0.15,-0.14,1.00,8.40,11.21,5.57,31.78
11997,0.13,-0.16,1.03,8.73,18.32,3.11,31.78
12007,0.09,-0.15,1.05,6.93,18.11,1.95,31.78
12017,0.05,-0.12,1.08,7.89,15.82,2.95,31.87
12027,0.06,-0.11,1.04,12.00,16.17,1.94,31.82
12037,0.03,-0.09,1.10,7.40,15.18,0.95,31.82
12047,0.03,-0.02,1.10,6.89,15.25,0.85,31.82
12057,0.02,0.04,1.08,3.39,18.64,3.68,31.73
12067,0.01,-0.02,1.13,1.22,32.11,8.34,31.82
12077,-0.05,-0.15,1.27,2.34,36.11,11.60,31.78
12087,-0.06,-0.26,1.35,8.58,28.03,9.56,31.82
12097,-0.07,-0.26,1.36,22.78,11.31,7.42,31.82
12107,-0.07,-0.17,1.27,30.70,-9.47,6.52,31.78
12117,0.00,-0.09,1.09,31.47,-19.42,9.22,31.87
12127,0.04,-0.06,1.00,31.05,-27.95,14.89,31.87
12137,0.14,-0.02,0.91,26.99,-28.64,18.67,31.87
12147,0.25,0.00,0.82,21.94,-23.80,17.19,31.78
12157,0.32,0.02,0.74,16.32,-9.42,15.36,31.78
12167,0.34,-0.03,0.76,11.69,9.30,14.93,31.87
12177,0.32,-0.05,0.81,4.55,21.25,10.24,31.87
12187,0.26,-0.07,0.86,-5.13,24.99,5.45,31.87
12197,0.19,-0.09,0.90,-8.00,23.30,2.23,31.73
12207,0.14,-0.08,0.94,-6.41,19.50,0.50,31.82
12217,0.12,-0.10,0.96,-3.18,19.10,1.21,31.82
12227,0.09,-0.09,0.97,-3.44,22.23,2.79,31.82
12237,0.05,-0.08,1.00,-5.18,21.82,3.85,31.82
12247,0.02,-0.08,1.02,-8.23,16.64,4.70,31.87
12257,0.02,-0.06,1.03,-8.93,9.40,4.53,31.82
12267,0.04,-0.04,1.00,-10.05,7.65,3.74,31.82
12277,0.03,-0.05,1.00,-12.32,12.03,6.21,31.78
12287,0.02,-0.08,1.02,-13.08,19.77,9.24,31.78
12297,0.00,-0.11,1.05,-10.34,20.73,10.96,31.87
12307,-0.01,-0.11,1.05,-8.92,17.01,12.61,31.87
12317,-0.02,-0.09,1.05,-10.70,10.50,13.97,31.87
12327,-0.01,-0.07,1.04,-11.60,4.52,14.55,31.78
12337,0.00,-0.06,1.02,-11.63,-1.48,15.07,31.78
12347,0.01,-0.06,1.00,-13.79,-5.59,15.92,31.78
12357,0.03,-0.07,0.97,-15.95,-9.79,15.59,31.82
12367,0.06,-0.08,0.98,-17.27,-12.63,13.83,31.82
12377,0.08,-0.08,0.97,-18.29,-10.87,13.74,31.82
12387,0.10,-0.10,0.96,-18.15,-4.41,14.75,31.73
12397,0.11,-0.14,0.95,-17.01,2.23,15.48,31.92
12407,0.12,-0.15,0.94,-15.37,7.60,14.09,31.82
12417,0.14,-0.18,0.96,-11.98,14.44,13.36,31.78
12427,0.12,-0.16,0.93,-10.09,17.66,10.93,31.82
12437,0.09,-0.14,0.94,-10.05,19.42,9.45,31.78
12447,0.05,-0.11,0.93,-11.92,16.93,9.01,31.97
12457,0.03,-0.09,0.93,-14.69,14.43,9.54,31.97
12467,0.03,-0.09,0.92,-15.16,13.10,10.21,31.78
12477,0.03,-0.09,0.93,-17.86,10.76,9.53,31.87
12487,0.03,-0.11,0.94,-20.82,12.09,10.27,31.87
12497,0.02,-0.13,0.97,-20.69,13.62,12.11,31.78
12507,0.02,-0.14,1.01,-19.01,14.95,11.31,31.87
12517,0.01,-0.15,1.02,-17.39,15.59,10.75,31.82
12527,-0.01,-0.14,1.04,-16.96,13.66,10.34,31.82
12537,-0.02,-0.13,1.06,-15.92,11.18,10.21,31.82
12547,-0.02,-0.14,1.06,-13.15,9.48,12.09,31.82
12557,-0.03,-0.12,1.08,-11.97,6.15,13.19,31.82
12567,-0.02,-0.13,1.06,-7.44,5.02,15.37,31.82
12577,-0.02,-0.11,1.06,-5.33,6.21,19.65,31.82
12587,-0.01,-0.09,1.06,-4.09,5.98,21.88,31.78
12597,0.01,-0.09,1.06,-4.38,5.13,20.98,31.87
12607,0.06,-0.11,1.02,-7.16,2.78,16.78,31.78
12617,0.04,-0.09,1.03,-16.82,-2.76,10.43,31.87
12627,0.06,-0.06,1.00,-23.27,0.92,10.81,31.87
12637,0.05,-0.07,0.97,-25.91,6.70,13.68,31.78
12647,0.04,-0.09,1.03,-30.09,17.07,14.49,31.87
12657,0.06,-0.12,1.05,-27.45,20.27,16.29,31.87
12667,0.04,-0.19,1.07,-22.11,27.60,15.86,31.87
12677,0.03,-0.21,1.11,-19.37,23.89,16.38,31.92
12687,0.03,-0.17,1.12,-17.01,27.27,19.94,31.82
12697,0.05,-0.17,1.10,-13.10,30.00,22.63,31.82
12707,0.06,-0.18,1.12,-12.12,26.50,19.56,31.92
12717,0.03,-0.17,1.14,-19.16,18.09,12.79,31.82
12727,0.01,-0.13,1.13,-23.07,10.08,10.98,31.82
12737,0.04,-0.12,1.12,-20.40,8.02,12.81,31.82
12747,0.05,-0.13,1.14,-17.65,7.73,13.25,31.82
12757,0.06,-0.16,1.15,-16.24,8.81,12.64,31.87
12767,0.05,-0.24,1.22,-10.32,6.08,9.71,31.82
12777,0.05,-0.20,1.16,-5.16,6.46,11.39,31.87
12787,0.06,-0.19,1.19,-3.82,7.94,10.35,31.78
