Timestamp,Acce_X,Acce_Y,Acce_Z,Gyro_X,Gyro_Y,Gyro_Z,Temp
27547,0.06,-0.25,0.78,-70.15,-12.47,8.56,32.20
27557,0.03,-0.28,0.77,-97.36,-10.03,14.73,32.11
27567,-0.05,-0.39,0.81,-125.21,-18.47,19.40,32.11
27577,-0.16,-0.52,0.89,-144.99,-34.93,25.25,32.20
27587,-0.26,-0.76,1.12,-138.67,-44.08,38.56,32.06
27597,-0.34,-0.92,1.34,-108.63,-49.39,49.54,32.15
27607,-0.30,-1.02,1.47,-55.19,-60.05,62.41,32.15
27617,-0.14,-0.98,1.41,-8.09,-68.70,65.42,32.25
27627,0.10,-0.87,1.21,21.60,-60.47,54.70,32.06
27637,0.26,-0.75,1.02,32.34,-42.41,35.74,32.15
27647,0.30,-0.64,0.87,27.30,-16.82,15.25,32.15
27657,0.23,-0.55,0.86,18.20,5.24,0.05,32.11
27667,0.09,-0.49,0.86,11.45,22.20,-8.37,32.06
27677,-0.04,-0.45,0.89,2.21,32.06,-13.36,32.11
27687,-0.16,-0.42,0.93,-3.19,28.11,-11.44,32.11
27697,-0.21,-0.36,0.98,-4.76,16.60,-2.55,32.20
27707,-0.18,-0.28,1.01,10.35,2.79,12.90,32.11
27717,-0.08,-0.21,0.97,32.92,-10.70,28.63,32.11
27727,0.04,-0.17,0.85,30.90,-5.11,33.85,32.11
27737,0.08,-0.13,0.86,21.50,-9.54,33.36,32.11
27747,0.16,-0.10,0.85,5.95,-7.19,25.94,32.11
27757,0.16,-0.11,0.88,-12.92,-4.31,15.44,32.11
27767,0.11,-0.12,0.90,-29.76,-2.24,7.16,32.11
27777,0.00,-0.15,0.94,-41.76,-1.86,6.70,32.25
27787,-0.07,-0.18,0.96,-50.78,3.18,15.82,32.15
27797,-0.14,-0.22,0.99,-56.66,9.62,31.57,32.06
27807,-0.15,-0.24,1.00,-58.69,15.19,49.94,32.15
27817,-0.12,-0.29,1.00,-60.08,17.71,63.57,32.15
27827,-0.10,-0.36,1.03,-61.47,8.11,70.34,32.15
27837,-0.02,-0.40,1.04,-68.43,-1.91,69.15,32.06
27847,0.04,-0.48,1.09,-71.94,-19.94,60.61,32.15
27857,0.14,-0.54,1.13,-69.73,-37.56,45.76,32.06
27867,0.17,-0.54,1.10,-66.03,-49.45,25.33,32.11
27877,0.19,-0.51,1.11,-53.79,-56.34,8.95,32.20
27887,0.22,-0.48,1.09,-36.81,-57.31,-3.37,32.11
27897,0.22,-0.46,1.06,-22.85,-48.12,-7.34,32.11
27907,0.20,-0.42,1.08,-14.72,-35.07,-3.65,32.11
27917,0.19,-0.39,1.07,-4.60,-20.06,4.27,32.11
27927,0.19,-0.34,1.08,0.76,-4.58,13.59,32.11
27937,0.18,-0.30,1.07,4.11,6.21,19.07,32.11
27947,0.23,-0.26,1.08,6.69,12.40,18.60,32.11
27957,0.25,-0.25,1.11,11.33,7.16,10.93,32.11
27967,0.25,-0.23,1.13,14.66,-6.49,-2.03,32.20
27977,0.24,-0.21,1.12,14.78,-24.75,-15.88,32.15
27987,0.23,-0.18,1.06,9.63,-44.69,-26.76,32.06
27997,0.22,-0.18,0.99,2.72,-58.72,-27.27,32.15
28007,0.27,-0.15,0.95,-6.49,-54.31,-19.04,32.15
28017,0.32,-0.15,0.94,-11.16,-39.30,-8.20,32.06
28027,0.39,-0.14,0.99,-13.37,-16.46,1.33,32.06
28037,0.42,-0.14,1.10,-9.83,0.63,6.23,32.11
28047,0.45,-0.14,1.22,-1.25,9.45,4.50,32.15
28057,0.42,-0.13,1.30,6.02,11.60,-1.97,32.06
28067,0.41,-0.10,1.31,13.76,10.60,-15.10,32.11
28077,0.38,-0.07,1.35,12.47,4.66,-30.00,32.11
28087,0.32,-0.02,1.40,4.75,-12.60,-49.80,32.11
28097,0.25,-0.00,1.42,-1.85,-33.10,-64.38,32.11
28107,0.21,0.00,1.42,-5.04,-44.96,-63.92,32.11
28117,0.20,0.01,1.39,-1.05,-42.52,-52.05,32.11
28127,0.22,-0.02,1.37,13.44,-24.70,-30.66,32.11
28137,0.28,-0.08,1.30,32.38,4.05,-4.55,32.01
28147,0.34,-0.12,1.24,46.15,35.10,17.28,32.11
28157,0.42,-0.15,1.18,52.58,58.17,29.19,32.15
28167,0.46,-0.17,1.16,51.44,68.84,29.19,32.15
28177,0.45,-0.20,1.14,45.25,61.30,17.45,32.15
28187,0.41,-0.22,1.13,33.74,39.66,-1.97,32.15
28197,0.35,-0.20,1.11,20.95,15.02,-23.94,32.15
28207,0.31,-0.15,1.07,2.26,5.22,-45.65,32.15
28217,0.18,-0.12,1.08,-6.81,-12.49,-58.02,32.15
28227,0.09,-0.09,1.05,-11.10,-23.48,-62.20,32.15
28237,0.02,-0.10,1.03,-12.17,-33.25,-57.68,32.06
28247,0.02,-0.11,1.00,-19.33,-46.82,-51.28,32.11
28257,0.09,-0.10,0.98,-26.81,-63.37,-47.57,32.11
28267,0.23,-0.05,0.94,-30.73,-78.20,-45.37,32.01
28277,0.40,0.01,0.82,-31.28,-84.40,-45.40,32.11
28287,0.64,-0.04,0.65,-26.23,-63.80,-51.97,32.11
28297,0.69,-0.10,0.50,-25.37,-37.50,-66.05,32.01
28307,0.73,-0.22,0.44,-20.41,11.60,-74.89,32.11
28317,0.62,-0.26,0.37,-16.18,78.69,-71.82,32.01
28327,0.38,-0.31,0.38,-14.73,143.77,-64.34,32.20
28337,0.15,-0.35,0.49,-20.26,182.76,-58.89,32.15
28347,0.02,-0.47,0.53,-21.83,196.99,-60.82,32.15
28357,-0.12,-0.58,0.48,-46.70,196.02,-56.12,32.15
28367,-0.35,-0.71,0.64,-81.50,200.70,-50.12,32.15
28377,-0.52,-0.80,0.84,-101.44,170.96,-33.19,32.06
28387,-0.63,-0.82,0.92,-116.02,122.43,-5.19,32.15
28397,-0.58,-0.84,0.92,-123.88,95.88,32.03,32.06
28407,-0.53,-0.96,1.04,-113.08,72.75,72.64,32.06
28417,-0.40,-1.06,1.16,-89.15,53.80,105.57,32.11
28427,-0.21,-1.17,1.20,-57.39,47.07,123.89,32.11
28437,-0.05,-1.26,1.24,-37.33,46.95,122.50,32.11
28447,0.00,-1.29,1.28,-18.38,32.93,105.18,32.11
28457,-0.03,-1.25,1.29,1.22,-2.15,80.03,32.11
28467,-0.07,-1.18,1.21,22.09,-45.22,58.89,32.01
28477,-0.07,-1.07,1.01,40.61,-77.68,46.23,32.11
28487,-0.00,-1.00,0.86,57.16,-88.20,44.96,32.20
28497,0.14,-0.93,0.78,61.74,-77.53,44.49,32.01
28507,0.19,-0.95,0.88,63.69,-81.53,33.27,32.15
28517,0.22,-0.89,1.02,65.80,-84.03,10.09,32.15
28527,0.13,-0.87,1.01,80.72,-105.66,-12.99,32.06
28537,0.07,-0.85,0.78,96.69,-123.24,-27.97,31.97
28547,0.04,-0.75,0.60,97.57,-129.07,-33.48,32.06
28557,0.04,-0.53,0.49,82.85,-124.18,-34.78,32.06
28567,0.02,-0.38,0.51,61.27,-110.99,-31.97,32.06
28577,-0.03,-0.34,0.59,59.36,-93.73,-22.73,32.15
28587,-0.04,-0.31,0.63,68.50,-69.08,-3.33,32.11
28597,0.02,-0.37,0.64,68.05,-40.23,13.28,32.11
28607,0.04,-0.41,0.70,63.31,-15.47,24.73,32.01
28617,0.01,-0.48,0.70,54.41,2.56,36.79,32.20
28627,0.05,-0.53,0.73,46.92,24.41,45.56,32.11
28637,0.06,-0.58,0.82,38.85,39.86,52.35,32.01
28647,0.06,-0.63,0.93,33.04,34.90,43.71,32.11
28657,0.01,-0.60,1.05,32.73,14.87,29.05,32.01
28667,-0.13,-0.57,1.06,35.45,-7.11,22.53,32.11
28677,-0.22,-0.56,1.08,37.39,-28.09,18.53,32.01
28687,-0.23,-0.45,0.97,38.56,-35.74,20.72,32.06
28697,-0.22,-0.37,0.87,37.16,-42.99,30.26,32.06
28707,-0.02,-0.30,0.83,32.56,-50.27,34.11,32.15
28717,0.16,-0.29,0.76,23.73,-59.44,31.80,32.06
28727,0.29,-0.30,0.73,9.62,-57.37,23.34,32.15
28737,0.39,-0.34,0.80,-0.66,-46.24,14.41,32.06
28747,0.39,-0.42,0.90,-13.22,-26.63,4.44,32.06
28757,0.37,-0.47,1.09,-13.83,-4.32,-2.55,32.11
28767,0.33,-0.51,1.18,5.53,28.58,-4.00,32.06
28777,0.21,-0.50,1.21,22.73,61.25,-8.08,32.11
28787,-0.02,-0.41,1.11,30.66,74.24,-10.21,32.11
28797,-0.27,-0.30,1.12,29.42,76.79,-6.43,32.11
28807,-0.34,-0.24,1.07,31.79,53.73,8.76,32.11
28817,-0.20,-0.20,0.98,17.91,36.96,14.92,32.01
28827,-0.14,-0.25,1.00,12.00,7.27,15.85,32.11
28837,0.02,-0.36,1.03,11.11,-4.99,7.31,32.11
28847,0.05,-0.44,1.04,6.61,-21.88,-5.33,32.01
28857,0.09,-0.39,1.01,13.47,-16.60,-13.80,32.01
28867,0.01,-0.37,0.95,19.25,-5.22,-13.42,32.06
28877,-0.08,-0.31,0.89,18.60,14.00,-0.46,32.06
28887,-0.10,-0.28,0.83,12.70,26.24,16.90,32.06
28897,0.07,-0.27,0.80,9.36,31.37,22.95,32.15
28907,0.16,-0.28,0.79,-2.47,26.52,16.93,32.06
28917,0.23,-0.30,0.83,-9.34,12.02,4.72,32.15
28927,0.22,-0.34,0.82,-14.90,5.73,-9.56,32.11
28937,0.08,-0.39,0.85,-19.89,-0.38,-17.10,32.06
28947,-0.03,-0.35,0.92,-24.87,4.84,-14.24,32.15
28957,-0.08,-0.34,1.03,-16.26,1.33,-6.00,32.11
28967,-0.05,-0.39,1.02,-7.97,7.56,-0.47,32.01
28977,0.02,-0.43,1.04,-3.98,6.20,-0.29,32.01
28987,0.10,-0.39,1.02,-1.86,1.18,-6.34,32.11
28997,0.07,-0.42,1.02,-7.15,-6.98,-13.82,32.01
29007,0.06,-0.34,1.01,-10.69,-13.76,-15.13,32.11
29017,0.10,-0.35,0.93,-11.59,-12.53,-15.24,32.11
29027,0.08,-0.37,0.92,-16.87,-2.75,-14.08,32.11
29037,0.08,-0.30,0.90,-22.89,21.25,-9.31,32.01
29047,0.09,-0.28,0.96,-25.71,42.58,-2.05,32.06
29057,0.11,-0.35,1.05,-24.56,59.51,0.92,32.06
29067,0.12,-0.49,1.16,-23.22,67.07,1.22,32.06
29077,0.15,-0.59,1.29,-12.03,64.06,-5.36,32.06
29087,0.15,-0.63,1.40,-0.96,52.43,-16.79,32.15
29097,0.11,-0.60,1.38,10.08,36.44,-27.97,32.11
29107,0.05,-0.52,1.29,22.15,24.55,-33.37,32.15
29117,0.05,-0.43,1.18,28.96,21.68,-35.16,32.25
29127,0.08,-0.36,1.08,32.23,23.11,-37.04,32.06
29137,0.11,-0.33,0.99,32.06,24.75,-36.69,32.11
29147,0.11,-0.33,0.94,25.97,27.83,-35.73,32.11
29157,0.06,-0.32,0.96,16.95,26.93,-35.28,32.01
29167,0.03,-0.30,1.00,11.56,24.17,-33.47,32.11
29177,-0.01,-0.27,1.02,5.59,14.67,-32.67,32.11
29187,-0.05,-0.31,1.02,-2.32,-0.87,-34.73,32.11
29197,-0.07,-0.35,0.99,-11.53,-12.89,-39.97,32.11
29207,-0.14,-0.32,0.98,-20.17,-15.77,-40.92,32.11
29217,-0.15,-0.23,0.82,-13.22,7.28,-26.98,32.11
29227,-0.08,-0.15,0.58,-5.24,69.30,-1.02,32.15
29237,-0.02,-0.11,0.51,-9.21,137.15,25.91,32.06
29247,0.00,-0.17,0.54,-21.44,184.73,39.39,32.06
29257,0.01,-0.23,0.66,-35.34,205.76,38.43,32.06
29267,-0.08,-0.34,0.84,-43.74,195.57,30.41,32.15
29277,-0.13,-0.41,0.95,-56.34,169.74,17.54,32.06
29287,-0.19,-0.49,1.17,-57.62,130.09,3.59,32.06
29297,-0.19,-0.63,1.35,-41.53,83.15,-9.05,32.15
29307,-0.16,-0.69,1.40,-22.11,51.30,-21.16,32.01
29317,-0.17,-0.72,1.40,-4.03,30.64,-26.29,32.20
29327,-0.16,-0.68,1.35,11.01,14.87,-27.02,32.01
29337,-0.16,-0.57,1.27,20.26,-0.38,-27.63,32.11
29347,-0.13,-0.49,1.17,26.90,-14.55,-31.13,32.01
29357,-0.08,-0.45,1.09,29.34,-38.81,-39.60,32.11
29367,-0.02,-0.40,0.94,24.60,-53.66,-47.02,32.01
29377,0.04,-0.33,0.81,16.24,-50.02,-51.59,32.11
29387,0.08,-0.31,0.78,10.66,-32.26,-52.87,32.01
29397,0.07,-0.31,0.79,-2.18,-8.40,-53.36,32.06
29407,-0.01,-0.38,0.89,-11.74,9.56,-50.79,32.06
29417,-0.10,-0.46,1.04,-13.44,22.56,-45.85,32.15
29427,-0.20,-0.58,1.22,-7.80,22.93,-42.60,32.06
29437,-0.28,-0.58,1.34,2.05,8.14,-39.91,32.06
29447,-0.29,-0.54,1.31,19.86,-17.71,-35.50,32.15
29457,-0.25,-0.46,1.16,33.59,-36.12,-31.60,32.15
29467,-0.17,-0.38,1.01,30.60,-44.06,-29.47,32.06
29477,-0.11,-0.36,0.99,17.47,-44.21,-29.47,32.11
29487,-0.09,-0.39,1.06,7.45,-39.51,-28.87,32.11
29497,-0.14,-0.46,1.17,1.71,-32.38,-25.13,32.01
29507,-0.23,-0.52,1.34,2.27,-29.91,-20.82,32.11
29517,-0.34,-0.54,1.48,13.37,-46.11,-15.05,32.01
29527,-0.31,-0.47,1.39,34.99,-65.85,-6.06,32.01
29537,-0.22,-0.35,1.07,51.15,-78.67,0.37,32.01
29547,-0.04,-0.23,0.71,43.48,-80.89,-0.73,32.11
29557,0.19,-0.12,0.54,5.19,-73.80,-12.81,32.11
29567,0.33,-0.10,0.57,-32.12,-47.92,-30.24,32.11
29577,0.27,-0.17,0.70,-57.21,2.09,-35.31,32.06
29587,0.03,-0.33,0.98,-60.56,51.31,-20.85,32.06
29597,-0.20,-0.47,1.32,-23.83,72.27,-5.50,32.15
29607,-0.29,-0.46,1.43,28.20,56.67,0.37,32.15
29617,-0.22,-0.27,1.17,60.66,21.91,-6.70,32.15
29627,-0.10,-0.01,0.83,55.18,-10.63,-16.02,32.06
29637,-0.01,0.16,0.64,25.97,-26.53,-18.37,32.06
29647,0.02,0.19,0.63,-7.44,-24.15,-15.45,32.01
29657,0.03,0.02,0.67,-31.08,8.29,-12.82,32.15
29667,-0.07,-0.23,0.89,-39.91,19.21,-10.78,32.20
29677,-0.15,-0.47,1.17,-30.79,23.39,-12.41,32.11
29687,-0.26,-0.58,1.33,-14.53,15.04,-12.44,32.11
29697,-0.28,-0.51,1.36,3.33,-0.93,-10.67,32.11
29707,-0.20,-0.38,1.31,18.90,-22.87,-11.73,32.11
29717,-0.13,-0.27,1.14,18.49,-40.05,-14.31,32.11
29727,-0.11,-0.15,1.00,12.23,-51.86,-16.00,32.01
29737,-0.08,-0.08,0.90,4.29,-47.91,-12.87,32.11
29747,-0.07,-0.06,0.83,-1.25,-26.37,-6.84,32.15
29757,-0.05,-0.11,0.84,-4.27,-0.26,1.56,32.06
29767,-0.03,-0.18,0.89,-0.50,14.90,5.24,32.06
29777,-0.02,-0.21,0.92,0.34,15.91,5.27,32.15
29787,0.01,-0.22,0.94,-1.21,-2.69,0.99,32.06
29797,0.03,-0.21,0.93,-9.53,-20.64,-5.21,32.06
29807,0.03,-0.23,0.99,-20.66,-32.90,-9.60,32.25
29817,0.00,-0.25,1.10,-26.02,-40.93,-11.34,32.11
29827,-0.03,-0.27,1.20,-24.15,-37.22,-10.20,32.06
29837,-0.06,-0.32,1.26,-13.10,-26.37,-2.95,32.01
29847,0.03,-0.32,1.19,11.19,-8.24,4.98,32.11
29857,0.15,-0.28,1.01,32.31,19.05,12.17,32.01
29867,0.28,-0.18,0.76,39.30,42.67,16.03,32.01
29877,0.41,-0.09,0.57,32.15,61.86,12.53,32.11
29887,0.47,-0.08,0.54,9.36,73.44,0.17,32.11
29897,0.39,-0.13,0.70,-19.30,75.16,-17.79,32.20
29907,0.19,-0.18,0.93,-35.15,68.17,-31.51,32.20
29917,-0.10,-0.27,1.18,-38.70,59.30,-35.44,32.11
29927,-0.40,-0.35,1.45,-23.37,37.53,-26.53,32.15
29937,-0.50,-0.35,1.55,2.98,11.21,-13.08,32.06
29947,-0.44,-0.29,1.41,23.37,-13.74,-1.95,32.06
29957,-0.28,-0.21,1.17,27.01,-34.21,3.30,31.97
29967,-0.12,-0.13,0.99,20.61,-43.37,4.29,32.06
29977,-0.00,-0.11,0.92,7.92,-37.82,1.59,32.15
29987,0.00,-0.12,0.96,-2.73,-34.98,-2.05,32.01
29997,-0.03,-0.12,1.03,-9.04,-24.38,-5.11,32.15
30007,-0.13,-0.14,1.13,-9.60,-18.66,-6.46,32.11
30017,-0.25,-0.15,1.27,-4.12,-20.79,-3.66,32.01
30027,-0.25,-0.14,1.27,11.33,-33.65,0.98,32.11
30037,-0.18,-0.09,1.14,20.99,-44.27,5.18,32.11
30047,-0.02,-0.02,0.95,24.85,-44.17,9.33,32.11
30057,0.12,0.04,0.76,24.03,-32.47,12.63,32.11
30067,0.29,0.06,0.66,11.13,-13.54,11.79,32.01
30077,0.32,-0.00,0.74,-10.60,-3.11,2.60,32.01
30087,0.31,-0.07,0.84,-23.98,0.52,-8.08,32.15
30097,0.21,-0.13,0.94,-34.38,9.30,-13.34,32.15
30107,0.02,-0.20,1.13,-37.10,13.66,-11.01,32.06
30117,-0.06,-0.23,1.25,-22.06,14.02,-2.06,32.06
30127,-0.06,-0.24,1.29,-2.82,15.31,4.70,32.06
30137,-0.03,-0.22,1.26,13.10,11.56,6.27,32.15
30147,0.02,-0.16,1.17,21.36,10.34,6.76,32.15
30157,0.03,-0.08,1.12,19.30,13.30,2.44,32.20
30167,-0.03,-0.09,1.14,9.28,12.72,-0.12,32.06
30177,-0.09,-0.11,1.17,5.50,16.46,1.08,32.01
30187,-0.19,-0.17,1.24,8.26,20.15,8.70,32.01
30197,-0.23,-0.20,1.24,18.18,22.89,19.73,32.11
30207,-0.16,-0.17,1.18,30.52,21.86,32.34,32.11
30217,-0.04,-0.12,1.07,38.02,23.33,40.92,32.20
30227,0.09,-0.08,0.95,38.37,24.64,42.09,32.11
30237,0.23,-0.01,0.79,30.66,25.30,35.33,32.01
30247,0.30,0.01,0.73,14.44,25.34,16.29,32.11
30257,0.27,-0.02,0.80,-11.82,19.51,-6.85,32.06
30267,0.15,-0.07,0.97,-33.97,4.20,-25.28,31.97
30277,-0.03,-0.10,1.14,-41.71,-12.09,-33.44,32.06
30287,-0.15,-0.13,1.21,-33.45,-15.02,-28.05,32.06
30297,-0.18,-0.15,1.23,-18.44,-8.14,-15.53,32.06
30307,-0.16,-0.15,1.20,-9.95,-0.85,-2.67,32.06
30317,-0.10,-0.13,1.15,-5.02,5.25,6.58,32.15
30327,-0.06,-0.11,1.08,-4.95,8.69,11.47,32.11
30337,-0.04,-0.12,1.07,-7.36,7.08,12.82,32.01
30347,-0.01,-0.13,1.02,-11.07,4.61,11.42,32.11
30357,0.01,-0.13,0.98,-16.15,4.05,7.47,32.11
30367,-0.04,-0.13,1.01,-22.76,3.33,6.34,32.11
30377,-0.10,-0.17,1.12,-20.14,-1.40,5.40,32.11
30387,-0.11,-0.19,1.22,-9.40,-11.37,6.09,32.11
30397,-0.08,-0.18,1.17,2.21,-19.88,5.73,32.20
30407,-0.03,-0.14,1.08,7.10,-21.27,5.54,32.11
30417,0.02,-0.10,0.98,10.37,-17.28,8.12,32.06
30427,0.05,-0.10,0.91,6.70,-5.16,12.46,32.15
30437,0.06,-0.12,0.94,0.79,2.12,17.04,32.06
30447,0.07,-0.18,0.97,-5.82,6.26,18.67,32.06
30457,0.08,-0.23,1.03,-13.13,1.88,15.08,32.06
30467,0.11,-0.24,1.05,-17.08,-8.34,8.53,32.06
30477,0.10,-0.22,1.00,-25.34,-12.24,1.65,32.15
30487,0.06,-0.22,1.03,-28.06,-13.88,-1.62,32.06
30497,0.02,-0.21,1.05,-25.76,-10.76,1.24,32.11
30507,-0.03,-0.20,1.05,-20.69,-1.60,5.02,32.01
30517,-0.08,-0.20,1.06,-15.11,7.91,9.85,32.11
30527,-0.09,-0.19,1.09,-11.47,16.26,13.42,32.01
30537,-0.12,-0.16,1.10,-9.27,16.81,14.08,32.11
30547,-0.10,-0.15,1.06,-7.98,10.37,12.43,32.11
30557,-0.08,-0.14,1.05,-12.63,0.64,7.92,32.01
30567,-0.09,-0.17,1.12,-14.79,-12.02,2.34,32.11
30577,-0.11,-0.17,1.14,-12.66,-23.30,-0.66,32.11
30587,-0.11,-0.19,1.16,-7.40,-28.87,-0.38,32.15
30597,-0.07,-0.20,1.18,1.80,-24.60,-0.27,32.06
30607,-0.05,-0.19,1.17,12.32,-16.90,-1.22,32.06
30617,-0.02,-0.17,1.14,19.68,-9.56,-4.12,31.97
30627,-0.02,-0.12,1.08,23.47,-6.90,-8.53,32.06
30637,-0.02,-0.07,1.00,20.63,-5.15,-12.17,32.06
30647,-0.02,0.01,0.90,15.25,-1.48,-14.09,32.15
30657,-0.02,0.06,0.79,5.07,4.53,-11.11,32.06
30667,-0.03,0.05,0.82,-2.56,5.18,-2.75,32.01
30677,-0.01,0.01,0.84,-15.68,4.15,5.10,32.11
30687,0.03,-0.06,0.88,-31.13,4.40,8.78,32.11
30697,0.07,-0.16,1.01,-38.29,3.19,7.47,32.11
30707,0.07,-0.28,1.20,-35.95,-3.08,2.85,32.01
30717,0.07,-0.34,1.31,-23.98,-13.95,-1.97,32.11
30727,0.11,-0.38,1.30,-10.23,-21.76,-4.46,32.01
30737,0.13,-0.36,1.25,0.38,-19.02,-7.18,32.11
30747,0.11,-0.32,1.20,10.41,-17.62,-6.40,32.11
30757,0.09,-0.28,1.13,16.26,-11.95,-3.73,32.06
30767,0.07,-0.25,1.08,17.10,-9.22,-0.44,32.06
30777,0.08,-0.21,1.04,12.08,-7.89,-0.05,32.15
30787,0.08,-0.18,1.01,6.40,-9.62,-2.15,32.06
30797,0.06,-0.17,1.01,-0.02,-12.60,-3.60,32.15
30807,0.04,-0.16,1.02,-4.46,-16.47,-2.81,32.06
30817,0.04,-0.15,1.03,-4.95,-16.35,-2.60,32.06
30827,0.05,-0.15,1.02,-1.68,-13.15,-0.37,32.15
30837,0.05,-0.14,1.00,-0.40,-10.23,2.05,32.11
30847,0.06,-0.12,1.00,-0.12,-6.26,4.17,32.01
30857,0.06,-0.11,0.98,-0.61,-1.56,5.44,32.11
30867,0.07,-0.11,0.97,-2.66,2.02,5.28,32.20
30877,0.08,-0.13,1.00,-4.24,2.98,4.26,32.11
30887,0.09,-0.14,1.03,-4.38,-0.21,0.93,32.11
30897,0.09,-0.13,1.04,-2.49,-5.45,-2.63,32.11
30907,0.09,-0.12,1.02,-3.48,-7.13,-5.13,32.11
30917,0.09,-0.10,0.99,-4.03,-6.44,-7.07,32.11
30927,0.08,-0.10,1.00,-5.47,-2.67,-7.89,32.11
30937,0.04,-0.11,1.04,-5.07,-2.61,-6.70,32.06
30947,0.01,-0.14,1.09,-1.83,-4.67,-3.95,32.06
30957,0.00,-0.15,1.13,2.05,-7.76,-1.22,31.97
30967,0.01,-0.15,1.11,4.31,-7.33,0.76,32.06
30977,0.03,-0.15,1.10,3.95,-7.95,1.54,32.15
30987,0.04,-0.14,1.07,0.85,-9.21,1.97,32.06
30997,0.07,-0.16,1.05,-1.37,-11.30,3.34,32.06
31007,0.11,-0.17,1.04,-2.03,-10.79,3.42,32.11
31017,0.15,-0.18,1.05,-3.59,-7.85,2.11,32.11
31027,0.15,-0.17,1.08,-5.25,-7.69,0.17,32.11
31037,0.13,-0.18,1.09,-5.73,-11.28,-1.73,32.11
31047,0.11,-0.17,1.09,-6.24,-12.93,-1.68,32.11
31057,0.09,-0.17,1.09,-7.36,-13.34,1.33,32.01
31067,0.08,-0.16,1.09,-8.47,-12.52,5.22,32.11
31077,0.10,-0.18,1.11,-7.19,-11.65,8.17,32.01
31087,0.13,-0.20,1.12,-5.65,-11.44,8.21,32.01
31097,0.16,-0.19,1.09,-5.85,-11.62,4.52,32.15
31107,0.15,-0.18,1.08,-6.24,-12.24,0.06,32.06
31117,0.12,-0.17,1.05,-6.55,-13.05,-2.81,32.25
31127,0.07,-0.16,1.02,-9.16,-13.02,-3.15,32.15
31137,0.05,-0.16,1.00,-12.73,-11.08,-0.90,32.06
31147,0.02,-0.17,1.00,-16.20,-10.69,2.35,32.06
31157,0.00,-0.19,1.01,-17.63,-10.41,4.78,32.06
31167,-0.01,-0.21,1.01,-17.65,-10.08,6.79,32.06
31177,-0.01,-0.23,0.99,-19.07,-9.02,11.04,32.01
31187,0.03,-0.26,1.02,-18.67,-10.05,13.76,32.20
31197,0.08,-0.31,1.03,-16.66,-11.25,12.92,32.11
31207,0.12,-0.34,1.05,-14.52,-14.06,9.91,32.11
31217,0.15,-0.36,1.04,-16.18,-14.06,4.58,32.11
31227,0.17,-0.35,1.03,-17.50,-12.37,-0.92,32.11
31237,0.16,-0.34,1.02,-18.31,-10.31,-4.40,32.11
31247,0.15,-0.33,0.99,-18.99,-8.60,-4.09,32.11
31257,0.13,-0.32,0.98,-21.15,-2.87,-0.09,31.97
31267,0.13,-0.33,1.00,-20.58,5.42,5.65,32.06
31277,0.14,-0.32,1.04,-18.82,15.85,11.59,32.15
31287,0.15,-0.32,1.08,-15.36,22.73,14.81,32.06
31297,0.15,-0.31,1.14,-11.22,25.66,12.84,32.06
31307,0.12,-0.30,1.18,-9.85,18.79,8.49,32.01
31317,0.12,-0.27,1.18,-6.92,10.78,3.24,32.06
31327,0.10,-0.23,1.19,-3.73,5.60,-1.24,32.06
31337,0.08,-0.20,1.16,-1.10,1.83,-2.60,32.06
31347,0.07,-0.17,1.14,1.42,-0.56,-0.85,32.11
31357,0.07,-0.15,1.10,2.63,1.07,0.53,32.11
31367,0.08,-0.14,1.08,2.50,1.66,1.51,32.01
31377,0.10,-0.16,1.04,1.89,2.40,1.86,32.11
31387,0.11,-0.16,1.03,0.06,2.47,2.43,32.01
31397,0.13,-0.17,1.02,-1.69,0.67,2.96,32.11
31407,0.16,-0.20,1.03,-1.60,0.17,2.99,32.11
31417,0.17,-0.24,1.04,1.66,-1.02,2.47,32.01
31427,0.20,-0.24,1.03,4.43,-2.38,0.50,32.15
31437,0.19,-0.24,1.01,6.32,-4.69,0.58,32.06
31447,0.20,-0.24,0.99,6.38,-4.44,1.11,32.15
31457,0.19,-0.22,0.99,5.39,-5.51,1.56,31.97
31467,0.18,-0.23,0.98,2.35,-6.44,2.72,32.06
31477,0.18,-0.23,0.98,0.43,-6.15,4.08,32.15
31487,0.20,-0.24,0.98,-1.11,-5.73,4.32,32.15
31497,0.21,-0.25,0.98,-3.05,-4.99,3.63,32.06
31507,0.22,-0.26,1.00,-5.47,-5.94,2.41,31.97
31517,0.24,-0.28,1.00,-6.50,-5.74,0.11,32.01
31527,0.24,-0.28,1.01,-6.98,-4.32,-2.82,32.11
31537,0.23,-0.29,1.03,-6.81,-1.73,-5.56,32.01
31547,0.21,-0.29,1.03,-7.34,1.39,-8.35,32.01
31557,0.16,-0.27,1.02,-8.84,5.25,-9.97,32.11
31567,0.10,-0.25,1.05,-8.52,8.47,-8.93,32.01
31577,0.04,-0.25,1.07,-7.37,13.45,-4.70,32.11
31587,0.03,-0.25,1.11,-4.34,15.50,-1.11,32.01
31597,0.04,-0.24,1.11,-3.18,13.74,-1.24,32.11
31607,0.06,-0.25,1.11,-2.64,8.92,-2.58,32.06
31617,0.07,-0.23,1.12,-1.36,3.47,-5.07,32.15
31627,0.09,-0.22,1.10,0.92,-0.06,-7.68,32.15
31637,0.09,-0.21,1.07,2.06,-3.28,-9.54,32.15
31647,0.10,-0.19,1.04,3.36,-3.51,-10.67,32.06
31657,0.09,-0.17,1.00,2.43,-1.39,-10.95,32.06
31667,0.09,-0.15,0.97,0.56,1.97,-9.44,32.15
31677,0.09,-0.12,0.95,-2.23,6.11,-6.95,32.06
31687,0.07,-0.12,0.94,-6.38,9.36,-3.25,32.11
31697,0.07,-0.13,0.95,-11.18,11.11,1.44,32.11
31707,0.08,-0.16,0.99,-12.24,10.70,4.95,32.11
31717,0.10,-0.21,1.03,-12.96,8.32,5.89,32.11
31727,0.13,-0.22,1.03,-13.94,3.73,3.68,32.01
31737,0.15,-0.24,1.05,-13.69,-0.52,-0.55,31.92
31747,0.13,-0.24,1.04,-13.10,-3.79,-3.91,32.11
31757,0.10,-0.23,1.06,-11.63,-5.60,-5.95,32.11
31767,0.07,-0.23,1.07,-8.82,-6.24,-5.95,32.06
31777,0.05,-0.22,1.06,-6.02,-5.94,-4.96,32.06
31787,0.03,-0.21,1.04,-4.79,-5.63,-2.11,32.06
31797,0.03,-0.21,1.04,-4.69,-5.47,1.15,32.15
31807,0.04,-0.21,1.05,-5.10,-6.47,3.44,32.15
31817,0.04,-0.21,1.07,-6.32,-9.80,4.43,32.11
31827,0.04,-0.23,1.08,-7.82,-14.61,4.49,32.06
31837,0.07,-0.25,1.09,-6.95,-20.72,4.46,32.06
31847,0.10,-0.27,1.07,-5.28,-25.15,3.73,32.11
31857,0.14,-0.27,1.04,-3.01,-25.40,2.95,32.11
31867,0.17,-0.27,1.04,0.24,-22.06,2.63,32.01
31877,0.20,-0.27,1.02,2.73,-19.02,1.74,32.01
31887,0.23,-0.26,0.99,2.69,-15.13,0.61,32.11
31897,0.24,-0.26,0.99,1.47,-10.66,-0.14,32.11
31907,0.24,-0.25,0.98,-1.05,-4.79,-1.10,32.11
31917,0.23,-0.25,0.98,-3.24,0.37,-2.06,32.11
31927,0.22,-0.26,1.00,-3.16,4.76,-3.02,32.11
31937,0.21,-0.27,1.03,-3.02,6.60,-4.61,32.06
31947,0.20,-0.30,1.06,-1.33,9.01,-5.76,32.06
31957,0.19,-0.33,1.09,0.34,13.19,-4.85,32.06
31967,0.17,-0.35,1.10,2.14,17.04,-3.57,32.15
31977,0.17,-0.37,1.13,3.47,18.38,-3.24,32.15
31987,0.16,-0.38,1.16,6.50,16.61,-4.31,32.06
31997,0.14,-0.36,1.17,8.29,11.34,-7.18,32.15
32007,0.15,-0.33,1.13,13.08,5.10,-10.87,32.06
32017,0.15,-0.29,1.07,14.95,-1.44,-14.90,32.06
32027,0.16,-0.24,1.00,14.69,-6.02,-17.57,32.11
32037,0.16,-0.20,0.92,10.34,-7.07,-17.42,32.11
32047,0.16,-0.18,0.90,3.76,-5.05,-14.89,32.01
32057,0.14,-0.17,0.93,-1.51,-3.30,-12.11,32.11
32067,0.14,-0.17,0.94,-4.00,-0.15,-9.42,32.11
32077,0.13,-0.16,0.99,-1.39,2.85,-7.71,32.11
32087,0.14,-0.15,1.01,3.07,2.37,-7.53,32.11
32097,0.16,-0.15,1.01,4.17,2.11,-9.10,32.01
32107,0.14,-0.12,0.99,3.42,-0.56,-10.87,32.20
32117,0.11,-0.12,0.96,1.30,-1.59,-8.84,32.15
32127,0.10,-0.13,0.99,-0.89,-0.78,-3.74,32.06
32137,0.13,-0.15,0.99,-0.70,1.04,0.35,32.06
32147,0.17,-0.18,1.00,-3.86,6.38,3.36,32.15
32157,0.20,-0.20,1.04,-7.15,8.99,3.01,31.97
32167,0.22,-0.21,1.07,-8.46,9.31,-0.12,32.15
32177,0.19,-0.21,1.11,-7.65,4.63,-4.66,32.06
32187,0.14,-0.20,1.13,-4.61,-2.69,-8.37,32.15
32197,0.09,-0.17,1.11,-0.37,-8.60,-8.69,32.11
32207,0.08,-0.13,1.07,0.78,-11.22,-6.76,32.11
32217,0.08,-0.12,1.06,-0.92,-10.79,-2.50,32.11
32227,0.10,-0.10,1.03,-3.08,-8.02,1.82,32.11
32237,0.11,-0.10,0.99,-5.80,-3.91,6.66,32.11
32247,0.14,-0.11,0.98,-8.37,1.62,11.50,32.11
32257,0.18,-0.13,0.94,-12.00,10.18,13.45,32.20
32267,0.21,-0.15,0.96,-15.98,16.93,12.47,32.11
32277,0.18,-0.16,1.00,-18.69,19.36,8.08,32.15
32287,0.12,-0.15,1.03,-18.50,17.39,2.96,32.15
32297,0.06,-0.13,1.05,-16.63,14.78,-0.06,32.06
32307,0.02,-0.14,1.05,-16.37,15.66,-0.15,32.15
32317,-0.01,-0.12,1.04,-14.14,20.15,4.56,32.15
32327,-0.03,-0.12,1.02,-12.17,28.60,12.20,32.20
32337,-0.04,-0.14,1.01,-12.73,36.15,20.82,32.06
32347,-0.01,-0.18,1.03,-15.54,40.06,26.46,32.06
32357,0.01,-0.24,1.07,-19.53,37.31,26.67,32.11
32367,0.03,-0.28,1.12,-21.77,27.59,22.56,32.11
32377,0.04,-0.31,1.16,-21.28,14.29,17.85,32.11
32387,0.05,-0.34,1.15,-16.82,3.89,15.48,32.11
32397,0.07,-0.34,1.14,-10.11,1.11,15.30,32.01
32407,0.10,-0.33,1.11,-2.00,3.45,16.96,32.11
32417,0.12,-0.32,1.05,3.54,8.02,19.28,32.11
32427,0.14,-0.28,1.00,4.41,11.28,20.49,32.11
32437,0.15,-0.24,0.95,2.05,12.12,21.50,32.11
32447,0.15,-0.22,0.92,-3.28,9.73,22.70,32.15
32457,0.17,-0.22,0.91,-10.47,7.98,21.57,32.15
32467,0.18,-0.24,0.94,-17.50,5.28,20.52,32.15
32477,0.17,-0.27,0.99,-19.19,2.20,19.86,32.06
32487,0.18,-0.31,1.05,-16.90,3.22,19.40,32.15
32497,0.18,-0.33,1.10,-12.87,5.11,18.29,32.11
32507,0.17,-0.34,1.13,-7.66,3.88,16.44,32.06
32517,0.18,-0.34,1.14,-4.78,3.25,13.15,32.01
32527,0.17,-0.32,1.11,-1.76,0.53,8.89,32.11
32537,0.14,-0.29,1.07,-0.70,-1.19,6.17,32.11
32547,0.11,-0.27,1.03,-1.07,-0.73,6.53,32.11
