Millis,Acce_X,Acce_Y,Acce_Z,Gyro_X,Gyro_Y,Gyro_Z,Temp
161047,0.14,-0.30,0.98,10.03,-10.09,-4.75,30.69
161057,0.16,-0.29,0.97,8.27,-0.60,4.24,30.60
161067,0.20,-0.31,1.00,5.02,8.31,10.84,30.51
161077,0.23,-0.32,1.05,2.20,15.40,13.05,30.69
161087,0.21,-0.35,1.11,-1.53,16.63,10.17,30.60
161097,0.17,-0.43,1.21,1.01,7.40,4.89,30.65
161107,0.13,-0.43,1.26,2.14,-4.18,-3.65,30.65
161117,0.13,-0.42,1.26,6.43,-15.88,-12.41,30.55
161127,0.14,-0.38,1.19,11.85,-23.10,-19.19,30.65
161137,0.15,-0.32,1.12,15.60,-23.98,-24.61,30.55
161147,0.15,-0.25,1.05,16.90,-20.89,-27.82,30.55
161157,0.14,-0.20,1.01,16.12,-15.15,-29.51,30.65
161167,0.13,-0.16,1.03,16.44,-14.38,-30.03,30.60
161177,0.13,-0.12,1.03,18.46,-11.94,-31.01,30.51
161187,0.14,-0.09,1.01,21.42,-9.25,-31.22,30.60
161197,0.16,-0.05,0.96,23.22,-5.85,-28.76,30.60
161207,0.19,-0.03,0.94,23.80,0.90,-26.72,30.60
161217,0.20,-0.01,0.94,20.79,8.15,-26.85,30.60
161227,0.21,-0.01,0.95,14.17,12.23,-28.21,30.65
161237,0.20,-0.01,0.97,7.44,11.18,-29.91,30.55
161247,0.20,-0.02,1.02,2.75,8.38,-33.66,30.65
161257,0.21,-0.05,1.06,-0.14,4.21,-41.65,30.65
161267,0.20,-0.06,1.06,-0.49,-2.56,-51.59,30.55
161277,0.18,-0.04,1.02,0.34,-7.50,-56.81,30.55
161287,0.19,-0.03,1.00,0.49,-7.65,-60.24,30.65
161297,0.18,-0.02,0.98,-0.46,-3.68,-62.03,30.65
161307,0.16,0.01,0.98,-3.33,1.69,-61.86,30.60
161317,0.13,0.02,0.97,-6.29,7.30,-57.19,30.60
161327,0.12,-0.01,1.00,-9.10,11.76,-50.44,30.60
161337,0.14,-0.04,1.03,-10.58,14.17,-43.65,30.60
161347,0.17,-0.09,1.03,-13.04,17.54,-40.95,30.51
161357,0.20,-0.14,1.06,-14.98,17.73,-45.02,30.65
161367,0.19,-0.17,1.10,-16.06,14.99,-53.31,30.60
161377,0.19,-0.17,1.11,-15.86,10.31,-60.72,30.55
161387,0.18,-0.15,1.09,-16.50,7.22,-59.21,30.55
161397,0.19,-0.17,1.08,-16.56,7.88,-51.47,30.55
161407,0.25,-0.20,1.04,-16.70,17.25,-35.01,30.65
161417,0.34,-0.27,1.07,-19.18,30.96,-21.91,30.55
161427,0.43,-0.36,1.12,-19.50,43.44,-19.69,30.55
161437,0.41,-0.47,1.22,-15.39,38.78,-26.89,30.65
161447,0.40,-0.47,1.27,-14.99,29.47,-43.24,30.60
161457,0.34,-0.49,1.33,-18.00,5.53,-62.52,30.60
161467,0.30,-0.47,1.36,-24.24,-18.90,-82.84,30.60
161477,0.19,-0.41,1.35,-21.65,-35.42,-97.91,30.60
161487,0.13,-0.35,1.27,-15.97,-30.69,-101.53,30.60
161497,0.03,-0.30,1.18,0.53,-23.69,-81.92,30.60
161507,0.04,-0.25,1.05,18.26,3.22,-41.22,30.51
161517,0.15,-0.30,1.00,26.49,37.28,-2.37,30.60
161527,0.25,-0.36,1.03,27.15,54.14,17.37,30.55
161537,0.33,-0.47,0.97,24.76,64.69,14.90,30.65
161547,0.38,-0.50,1.05,13.18,45.39,-1.36,30.55
161557,0.27,-0.51,1.14,12.08,11.01,-27.82,30.65
161567,0.22,-0.49,1.10,13.57,-18.26,-54.46,30.65
161577,0.15,-0.41,1.00,15.79,-34.96,-70.78,30.65
161587,0.05,-0.29,0.90,13.10,-37.39,-75.25,30.65
161597,-0.01,-0.23,0.85,9.95,-29.68,-69.08,30.51
161607,-0.07,-0.18,0.81,6.47,-16.69,-53.92,30.60
161617,-0.11,-0.19,0.82,6.60,-8.37,-37.73,30.51
161627,-0.08,-0.21,0.81,13.13,-3.24,-23.59,30.51
161637,-0.04,-0.22,0.80,17.63,1.82,-14.43,30.60
161647,0.01,-0.25,0.77,17.69,4.89,-9.62,30.60
161657,0.02,-0.26,0.74,9.25,7.51,-6.95,30.55
161667,-0.01,-0.24,0.80,-6.46,6.49,-4.14,30.55
161677,-0.00,-0.28,0.81,-19.44,0.11,-1.69,30.65
161687,-0.01,-0.34,0.82,-25.54,-0.85,3.10,30.65
161697,-0.00,-0.38,0.84,-26.73,1.51,8.44,30.55
161707,0.01,-0.45,0.87,-24.03,5.92,14.20,30.55
161717,0.05,-0.52,0.89,-18.84,11.39,19.95,30.55
161727,0.08,-0.56,0.89,-14.06,18.84,22.67,30.74
161737,0.11,-0.58,0.89,-13.19,24.23,25.24,30.60
161747,0.12,-0.53,0.82,-16.17,26.73,26.98,30.60
161757,0.09,-0.53,0.80,-26.09,25.73,29.33,30.51
161767,0.03,-0.51,0.80,-39.16,20.03,34.72,30.51
161777,-0.03,-0.57,0.88,-46.41,15.31,42.52,30.60
161787,-0.07,-0.61,0.93,-46.05,10.85,53.04,30.55
161797,-0.00,-0.69,0.94,-40.29,11.16,60.82,30.51
161807,0.09,-0.77,0.96,-31.56,12.17,59.74,30.55
161817,0.12,-0.84,0.97,-26.93,9.47,50.50,30.55
161827,0.14,-0.84,0.95,-22.61,3.47,39.68,30.65
161837,0.11,-0.80,0.94,-22.70,-3.98,30.02,30.55
161847,0.10,-0.74,0.94,-25.10,-11.04,22.00,30.65
161857,0.04,-0.68,0.96,-28.08,-18.60,17.79,30.65
161867,-0.01,-0.58,1.03,-29.47,-23.95,19.34,30.55
161877,-0.07,-0.48,1.12,-23.76,-35.47,23.24,30.51
161887,-0.13,-0.47,1.20,-18.15,-54.24,29.80,30.51
161897,-0.14,-0.49,1.21,-15.65,-67.95,36.53,30.51
161907,-0.03,-0.54,1.16,-10.96,-67.59,45.08,30.60
161917,0.03,-0.66,1.16,-6.12,-59.92,51.48,30.65
161927,0.13,-0.78,1.21,8.96,-52.31,55.51,30.60
161937,0.20,-0.85,1.26,31.50,-63.63,48.58,30.60
161947,0.29,-0.85,1.07,50.58,-81.44,38.35,30.55
161957,0.40,-0.76,0.82,48.52,-88.61,28.87,30.65
161967,0.51,-0.61,0.60,39.88,-82.17,23.73,30.55
161977,0.57,-0.47,0.49,27.28,-54.35,24.67,30.55
161987,0.61,-0.49,0.49,12.98,-15.48,25.01,30.55
161997,0.51,-0.55,0.58,0.90,21.66,19.68,30.55
162007,0.36,-0.64,0.78,-9.31,45.62,15.79,30.46
162017,0.21,-0.70,0.94,-11.80,50.98,13.85,30.55
162027,0.09,-0.71,1.08,-3.88,46.99,12.85,30.60
162037,0.05,-0.74,1.16,7.47,35.21,10.99,30.60
162047,0.10,-0.73,1.09,21.25,16.66,4.82,30.60
162057,0.19,-0.61,0.90,29.19,12.81,-1.28,30.51
162067,0.27,-0.51,0.75,34.26,15.31,-8.15,30.60
162077,0.28,-0.50,0.71,31.68,23.65,-16.90,30.60
162087,0.20,-0.47,0.71,22.41,28.14,-21.51,30.55
162097,0.13,-0.50,0.73,15.24,25.54,-25.89,30.55
162107,0.05,-0.48,0.73,9.95,17.98,-33.82,30.65
162117,-0.08,-0.32,0.68,-0.11,15.18,-33.40,30.65
162127,-0.19,-0.19,0.72,-8.46,11.18,-23.69,30.65
162137,-0.22,-0.20,0.78,-11.54,10.06,-10.05,30.55
162147,-0.17,-0.18,0.79,-16.67,13.21,-0.52,30.65
162157,-0.12,-0.17,0.79,-28.82,15.77,8.78,30.55
162167,0.00,-0.21,0.86,-36.60,22.90,16.93,30.51
162177,0.09,-0.32,0.97,-40.41,32.93,23.19,30.51
162187,0.18,-0.48,1.10,-38.66,45.48,21.54,30.60
162197,0.20,-0.59,1.22,-33.91,45.39,9.80,30.60
162207,0.14,-0.57,1.26,-24.11,32.41,-0.85,30.60
162217,0.09,-0.48,1.16,-14.85,20.52,-6.81,30.65
162227,0.07,-0.39,1.10,-15.25,15.60,-6.64,30.60
162237,0.07,-0.35,1.04,-17.02,15.62,-3.15,30.60
162247,0.05,-0.36,1.00,-21.59,23.08,1.71,30.55
162257,0.05,-0.39,1.04,-22.70,28.38,3.56,30.65
162267,0.01,-0.45,1.07,-21.21,25.95,3.42,30.65
162277,-0.02,-0.47,1.10,-16.56,17.19,2.26,30.55
162287,-0.03,-0.49,1.10,-11.01,4.26,-0.31,30.55
162297,0.01,-0.46,1.03,-7.39,-4.76,-2.24,30.55
162307,0.04,-0.37,0.93,-10.15,-3.74,-2.20,30.55
162317,0.04,-0.35,0.92,-17.30,1.97,1.89,30.55
162327,0.06,-0.37,0.95,-22.93,12.15,7.37,30.60
162337,0.04,-0.47,1.07,-23.98,16.09,9.85,30.51
162347,0.05,-0.51,1.15,-18.53,10.17,6.12,30.51
162357,0.04,-0.50,1.15,-12.92,-0.46,1.44,30.60
162367,0.02,-0.48,1.13,-5.71,-8.20,-0.02,30.51
162377,0.06,-0.46,1.04,0.73,-5.77,1.27,30.69
162387,0.07,-0.44,0.97,1.22,-2.32,2.70,30.65
162397,0.07,-0.41,0.93,-0.69,2.96,4.26,30.55
162407,0.07,-0.40,0.92,-4.87,4.66,5.76,30.55
162417,0.08,-0.40,0.91,-8.18,4.00,5.45,30.55
162427,0.10,-0.43,0.94,-11.92,0.34,3.77,30.55
162437,0.09,-0.44,0.98,-13.59,-1.54,2.79,30.65
162447,0.11,-0.45,0.99,-11.71,-0.90,1.51,30.65
162457,0.12,-0.45,0.98,-10.53,0.66,-0.66,30.65
162467,0.08,-0.45,0.99,-10.17,0.67,-1.91,30.74
162477,0.05,-0.44,1.02,-9.10,0.81,-2.67,30.51
162487,0.02,-0.42,1.03,-7.25,0.58,0.00,30.60
162497,0.03,-0.43,1.06,-4.75,1.31,2.43,30.69
162507,0.06,-0.44,1.07,-2.81,0.76,2.38,30.60
162517,0.06,-0.45,1.08,-2.79,0.29,0.98,30.60
162527,0.08,-0.42,1.08,-2.56,-0.17,1.51,30.60
162537,0.12,-0.43,1.04,-2.00,2.69,2.20,30.51
162547,0.15,-0.45,1.02,-0.98,6.92,1.11,30.60
162557,0.13,-0.43,1.02,-0.29,12.05,0.75,30.65
162567,0.12,-0.45,1.04,0.21,11.62,-0.37,30.65
162577,0.08,-0.46,1.05,-0.34,8.76,-1.21,30.65
162587,0.06,-0.46,1.06,0.34,5.04,-1.53,30.55
162597,0.07,-0.46,1.07,2.98,1.50,-2.00,30.65
162607,0.07,-0.44,1.01,3.45,0.82,-1.69,30.55
162617,0.06,-0.41,1.00,1.91,0.85,-1.45,30.55
162627,0.10,-0.41,0.97,0.31,7.74,-1.30,30.60
162637,0.07,-0.41,0.99,-1.16,12.66,2.29,30.60
162647,0.07,-0.43,1.01,-2.55,19.16,5.18,30.60
162657,0.06,-0.45,1.02,-4.40,19.11,5.39,30.51
162667,0.06,-0.47,1.02,-6.18,16.85,4.81,30.60
162677,0.02,-0.50,1.00,-8.72,6.85,0.02,30.51
162687,-0.05,-0.49,0.98,-13.68,-3.39,-6.78,30.55
162697,-0.09,-0.47,0.94,-14.63,-20.24,-12.90,30.55
162707,-0.16,-0.42,0.88,-19.80,-33.97,-15.91,30.65
162717,-0.24,-0.40,0.85,-27.88,-52.67,-16.06,30.55
162727,-0.28,-0.39,0.88,-34.49,-73.66,-14.98,30.65
162737,-0.28,-0.39,0.89,-39.51,-92.56,-12.26,30.55
162747,-0.26,-0.39,0.91,-41.36,-109.53,-5.94,30.65
162757,-0.13,-0.40,0.88,-34.34,-114.32,5.25,30.55
162767,0.07,-0.45,0.83,-32.70,-97.60,14.76,30.60
162777,0.25,-0.48,0.85,-32.81,-76.69,20.47,30.60
162787,0.37,-0.51,0.85,-32.27,-52.96,20.90,30.51
162797,0.45,-0.55,0.90,-37.33,-34.98,14.73,30.51
162807,0.48,-0.61,0.97,-37.82,-21.59,6.63,30.60
162817,0.44,-0.65,1.02,-33.51,-12.96,-2.37,30.55
162827,0.39,-0.65,1.04,-25.11,-3.94,-7.24,30.60
162837,0.32,-0.63,1.04,-15.18,7.37,-8.63,30.65
162847,0.26,-0.61,1.05,-3.53,17.83,-7.82,30.55
162857,0.23,-0.56,1.00,7.88,35.13,-2.53,30.65
162867,0.23,-0.52,0.96,15.39,52.21,4.05,30.65
162877,0.26,-0.51,0.91,17.62,63.48,7.59,30.65
162887,0.30,-0.50,0.86,15.21,71.62,6.98,30.65
162897,0.30,-0.53,0.85,8.02,75.04,1.74,30.65
162907,0.27,-0.56,0.88,2.24,73.85,-7.91,30.65
162917,0.18,-0.59,0.93,-0.12,66.44,-17.65,30.51
162927,0.10,-0.61,0.97,-0.11,53.95,-24.76,30.60
162937,0.01,-0.60,0.96,2.21,41.77,-28.82,30.60
162947,-0.02,-0.58,0.94,5.76,33.08,-29.30,30.51
162957,-0.01,-0.56,0.91,9.66,31.07,-25.56,30.60
162967,0.01,-0.53,0.86,14.31,34.53,-17.13,30.60
162977,0.08,-0.51,0.77,17.69,55.66,-5.54,30.60
162987,0.10,-0.51,0.78,23.27,80.92,5.28,30.55
162997,0.09,-0.54,0.81,30.67,98.38,13.31,30.55
163007,0.08,-0.56,0.87,35.80,110.76,12.61,30.65
163017,0.08,-0.58,0.90,38.70,104.82,-0.35,30.65
163027,0.03,-0.58,0.89,35.48,90.63,-18.43,30.65
163037,-0.04,-0.55,0.93,25.62,65.68,-33.51,30.55
163047,-0.10,-0.48,0.97,19.69,37.31,-41.79,30.65
163057,-0.14,-0.44,0.98,17.42,15.22,-43.01,30.65
163067,-0.16,-0.42,1.00,19.13,-0.85,-38.34,30.51
163077,-0.15,-0.41,1.01,21.95,-14.18,-31.54,30.60
163087,-0.13,-0.43,1.02,22.60,-31.86,-25.91,30.60
163097,-0.08,-0.44,1.00,23.98,-48.03,-23.66,30.60
163107,-0.01,-0.46,0.94,26.53,-60.69,-21.05,30.60
163117,0.07,-0.47,0.92,28.82,-59.66,-18.08,30.65
163127,0.14,-0.45,0.86,30.09,-56.70,-18.43,30.69
163137,0.22,-0.43,0.81,25.02,-48.61,-23.86,30.60
163147,0.27,-0.39,0.80,13.76,-42.21,-31.79,30.55
163157,0.30,-0.37,0.75,1.47,-33.30,-37.83,30.55
163167,0.29,-0.34,0.79,-5.21,-22.29,-40.23,30.55
163177,0.28,-0.36,0.80,-8.29,-7.88,-37.89,30.55
163187,0.25,-0.38,0.82,-10.61,7.68,-32.89,30.65
163197,0.20,-0.42,0.92,-9.16,16.12,-27.36,30.55
163207,0.18,-0.48,0.99,-4.14,24.29,-21.71,30.55
163217,0.14,-0.52,1.05,5.34,23.51,-18.02,30.65
163227,0.13,-0.52,1.08,12.79,18.55,-17.59,30.60
163237,0.16,-0.49,1.07,16.66,8.43,-23.85,30.60
163247,0.17,-0.47,1.03,12.32,-4.63,-34.78,30.51
163257,0.17,-0.44,1.02,2.44,-16.32,-44.76,30.60
163267,0.15,-0.40,1.03,-4.35,-27.02,-49.94,30.60
163277,0.12,-0.36,1.05,-6.31,-29.27,-47.91,30.60
163287,0.10,-0.35,1.03,-3.27,-22.67,-40.03,30.65
163297,0.10,-0.32,1.02,2.11,-7.86,-28.21,30.60
163307,0.10,-0.30,1.03,9.95,10.79,-17.07,30.65
163317,0.09,-0.31,1.02,15.85,29.34,-8.78,30.65
163327,0.04,-0.28,1.04,18.06,38.52,-2.23,30.65
163337,0.01,-0.26,1.02,16.11,41.04,-0.75,30.55
163347,-0.00,-0.26,1.04,10.53,39.40,-4.41,30.46
163357,-0.04,-0.26,1.09,-2.11,26.66,-13.36,30.55
163367,-0.10,-0.26,1.16,-10.06,7.80,-18.85,30.55
163377,-0.11,-0.23,1.16,-12.11,-8.15,-18.35,30.55
163387,-0.10,-0.20,1.11,-11.91,-16.81,-12.95,30.60
163397,-0.08,-0.19,1.08,-8.44,-17.77,-4.17,30.60
163407,-0.06,-0.21,1.04,-7.01,-12.58,6.49,30.69
163417,-0.04,-0.23,1.03,-5.31,-9.37,17.69,30.60
163427,-0.01,-0.23,0.99,-7.63,-1.86,28.82,30.51
163437,0.02,-0.26,0.99,-8.87,-0.02,36.14,30.69
163447,0.08,-0.30,0.99,-9.57,-2.69,39.07,30.60
163457,0.12,-0.33,0.98,-12.21,-4.63,36.41,30.55
163467,0.15,-0.35,0.99,-15.97,-7.34,30.09,30.55
163477,0.18,-0.38,1.01,-17.39,-14.40,22.56,30.55
163487,0.20,-0.40,1.01,-18.29,-20.87,16.66,30.65
163497,0.22,-0.39,0.98,-20.46,-23.95,13.02,30.65
163507,0.24,-0.39,0.94,-24.58,-20.50,12.34,30.65
163517,0.27,-0.38,0.93,-29.65,-7.68,13.62,30.65
163527,0.27,-0.39,0.95,-30.17,6.21,14.76,30.55
163537,0.25,-0.41,0.99,-27.36,20.20,16.58,30.60
163547,0.22,-0.42,1.01,-21.77,32.38,18.03,30.60
163557,0.19,-0.46,1.06,-13.73,34.05,16.90,30.60
163567,0.19,-0.45,1.10,-5.65,32.00,10.46,30.60
163577,0.14,-0.48,1.11,1.22,20.64,5.83,30.60
163587,0.14,-0.46,1.09,2.43,12.14,2.21,30.51
163597,0.13,-0.44,1.07,1.02,4.81,-1.79,30.60
163607,0.12,-0.41,1.04,-0.98,-0.09,-4.00,30.60
163617,0.09,-0.38,1.01,-2.32,-3.53,-3.45,30.60
163627,0.07,-0.37,0.98,-0.69,-6.00,-0.96,30.55
163637,0.06,-0.34,0.97,1.79,-6.87,3.48,30.55
163647,0.06,-0.35,0.95,2.15,-3.02,10.08,30.55
163657,0.08,-0.33,0.96,1.79,4.12,15.18,30.55
163667,0.10,-0.33,0.99,1.53,10.27,16.73,30.65
163677,0.11,-0.34,1.01,0.81,13.69,15.39,30.55
163687,0.10,-0.33,1.03,0.02,12.06,11.66,30.65
163697,0.07,-0.35,1.06,3.10,5.22,8.63,30.65
163707,0.04,-0.35,1.05,8.93,-1.40,6.55,30.60
163717,0.04,-0.35,1.02,16.64,-6.29,6.24,30.69
163727,0.06,-0.35,0.97,22.93,-11.73,7.89,30.60
163737,0.10,-0.33,0.90,22.87,-13.77,7.97,30.60
163747,0.14,-0.28,0.87,17.77,-16.02,7.24,30.60
163757,0.17,-0.27,0.86,10.53,-18.32,5.85,30.55
163767,0.19,-0.27,0.85,3.36,-16.66,4.32,30.60
163777,0.19,-0.27,0.88,-1.04,-11.50,4.18,30.65
163787,0.16,-0.27,0.92,-1.54,-4.47,6.17,30.55
163797,0.15,-0.30,0.94,2.02,1.68,9.62,30.55
163807,0.16,-0.33,0.98,7.40,4.44,12.90,30.65
163817,0.16,-0.33,0.98,9.33,5.19,12.96,30.55
163827,0.17,-0.33,0.97,9.68,4.58,11.57,30.65
163837,0.17,-0.33,0.98,8.69,5.53,9.79,30.55
163847,0.16,-0.31,0.97,7.83,7.63,9.07,30.60
163857,0.15,-0.31,0.97,6.34,12.81,9.85,30.69
163867,0.13,-0.31,0.99,5.42,17.19,11.07,30.60
163877,0.10,-0.33,0.99,5.63,22.06,13.19,30.60
163887,0.10,-0.34,1.00,4.56,27.34,17.08,30.60
163897,0.06,-0.34,1.02,6.61,33.22,20.52,30.51
163907,0.04,-0.33,1.03,6.55,39.98,22.50,30.51
163917,0.02,-0.32,1.06,8.87,41.28,21.91,30.55
163927,-0.01,-0.30,1.06,10.79,37.33,19.24,30.65
163937,-0.05,-0.29,1.08,10.52,26.56,15.18,30.55
163947,-0.07,-0.27,1.09,10.43,11.63,11.76,30.55
163957,-0.07,-0.25,1.07,10.06,-4.46,11.44,30.65
163967,-0.03,-0.21,1.02,6.60,-15.19,10.90,30.65
163977,-0.00,-0.19,0.98,0.32,-22.08,11.27,30.55
163987,0.04,-0.18,0.98,-5.82,-22.95,12.24,30.65
163997,0.07,-0.18,0.97,-10.47,-21.63,13.95,30.69
164007,0.10,-0.18,0.98,-14.27,-17.05,17.40,30.60
164017,0.11,-0.19,1.00,-17.63,-11.62,20.02,30.60
164027,0.13,-0.21,1.03,-19.83,-5.19,22.23,30.69
164037,0.13,-0.23,1.05,-20.93,1.13,24.67,30.60
164047,0.12,-0.24,1.09,-20.56,4.50,25.48,30.60
164057,0.12,-0.27,1.08,-19.92,6.06,26.67,30.55
164067,0.13,-0.29,1.10,-18.56,5.28,26.24,30.74
164077,0.14,-0.31,1.11,-19.53,4.14,22.96,30.55
164087,0.16,-0.32,1.12,-19.79,2.26,18.50,30.55
164097,0.16,-0.33,1.14,-19.65,-0.81,14.15,30.55
164107,0.17,-0.34,1.14,-19.39,-3.69,9.73,30.65
164117,0.17,-0.35,1.13,-18.98,-5.25,6.52,30.55
164127,0.17,-0.35,1.11,-17.48,-2.98,4.46,30.55
164137,0.15,-0.34,1.10,-15.71,0.38,2.64,30.65
164147,0.11,-0.33,1.10,-11.10,4.66,2.29,30.60
164157,0.07,-0.30,1.09,-5.94,10.44,3.24,30.60
164167,0.04,-0.27,1.08,-1.89,14.89,4.08,30.69
164177,0.01,-0.22,1.06,-1.18,18.23,3.86,30.60
164187,-0.03,-0.18,1.05,-4.72,21.36,2.87,30.55
164197,-0.06,-0.15,1.03,-9.21,19.92,1.24,30.51
164207,-0.09,-0.12,1.01,-14.09,17.51,-1.62,30.69
164217,-0.13,-0.11,1.00,-19.47,13.31,-4.44,30.55
164227,-0.18,-0.11,0.99,-25.34,7.97,-4.61,30.65
164237,-0.22,-0.10,0.98,-29.15,0.18,1.21,30.55
164247,-0.22,-0.13,1.00,-29.63,-6.24,15.13,30.65
164257,-0.17,-0.16,0.99,-27.74,-8.20,31.62,30.55
164267,-0.04,-0.24,0.99,-25.92,-3.31,43.15,30.65
164277,0.07,-0.32,1.06,-23.86,-3.36,45.82,30.55
164287,0.15,-0.37,1.06,-21.69,-3.85,38.55,30.65
164297,0.17,-0.42,1.12,-21.60,-8.32,30.26,30.60
164307,0.20,-0.45,1.13,-20.55,-14.95,22.58,30.60
164317,0.22,-0.46,1.14,-15.80,-17.18,17.11,30.60
164327,0.23,-0.46,1.13,-10.06,-17.86,12.98,30.60
164337,0.23,-0.45,1.11,-3.95,-17.47,10.31,30.60
164347,0.22,-0.44,1.06,2.27,-17.73,7.89,30.60
164357,0.21,-0.41,1.04,6.63,-17.25,6.89,30.55
164367,0.20,-0.39,1.03,10.18,-15.51,6.41,30.65
164377,0.19,-0.37,1.00,13.50,-12.55,4.31,30.65
164387,0.17,-0.35,1.00,15.11,-13.31,0.72,30.65
164397,0.14,-0.32,0.98,15.07,-17.79,-3.21,30.55
164407,0.13,-0.30,0.96,14.78,-22.73,-5.51,30.65
164417,0.12,-0.29,0.92,12.96,-25.08,-4.27,30.65
164427,0.13,-0.29,0.92,10.85,-23.07,-2.38,30.46
164437,0.13,-0.29,0.92,8.40,-19.16,-0.92,30.60
164447,0.14,-0.30,0.92,5.76,-14.37,0.50,30.60
164457,0.14,-0.31,0.94,3.36,-11.08,1.08,30.60
164467,0.14,-0.32,0.95,2.52,-9.21,1.50,30.60
164477,0.15,-0.33,0.96,1.33,-7.36,1.59,30.60
164487,0.16,-0.33,0.97,0.11,-5.01,0.64,30.55
164497,0.17,-0.34,0.97,-1.37,-2.40,-1.59,30.60
164507,0.14,-0.35,1.00,-2.78,-1.50,-4.47,30.65
164517,0.12,-0.35,1.01,-4.09,-1.37,-6.03,30.65
164527,0.10,-0.35,1.02,-4.64,-1.62,-6.15,30.65
164537,0.09,-0.36,1.02,-4.53,-0.84,-4.60,30.65
164547,0.08,-0.37,1.03,-4.67,0.52,-1.95,30.55
164557,0.08,-0.39,1.02,-5.34,3.11,1.21,30.55
164567,0.08,-0.41,1.04,-5.98,6.31,3.77,30.55
164577,0.08,-0.43,1.06,-6.49,6.72,4.66,30.51
164587,0.06,-0.45,1.13,-5.73,-1.53,1.40,30.60
164597,0.07,-0.42,1.08,-7.73,0.32,1.31,30.60
164607,0.05,-0.42,1.07,-8.08,-3.73,-0.03,30.60
164617,0.05,-0.40,1.05,-7.40,-7.65,0.41,30.60
164627,0.07,-0.39,1.04,-7.51,-7.86,0.92,30.60
164637,0.08,-0.37,1.04,-7.85,-8.02,0.38,30.60
164647,0.10,-0.35,1.02,-7.30,-6.87,-0.35,30.65
164657,0.11,-0.33,1.01,-6.38,-4.46,-0.85,30.65
164667,0.10,-0.30,1.00,-5.62,-2.46,-1.33,30.65
164677,0.10,-0.29,1.02,-5.76,-2.90,-2.17,30.55
164687,0.10,-0.26,0.97,-5.94,0.21,-1.07,30.55
164697,0.10,-0.25,0.98,-6.99,0.46,0.15,30.65
164707,0.12,-0.24,0.96,-8.72,1.25,1.39,30.55
164717,0.14,-0.25,0.96,-9.77,2.60,1.21,30.65
164727,0.16,-0.26,0.95,-12.31,4.08,0.17,30.60
164737,0.17,-0.27,0.94,-14.43,5.80,-1.10,30.60
164747,0.19,-0.30,0.95,-15.86,8.73,-1.42,30.51
164757,0.20,-0.33,0.96,-16.64,12.50,-2.56,30.60
164767,0.20,-0.35,0.98,-16.12,15.85,-3.95,30.69
164777,0.20,-0.38,0.99,-15.54,17.65,-5.45,30.60
164787,0.20,-0.41,1.00,-14.18,18.46,-7.34,30.74
164797,0.20,-0.42,1.02,-12.43,19.65,-9.22,30.69
164807,0.17,-0.44,1.02,-10.92,19.51,-11.59,30.65
164817,0.14,-0.46,1.03,-9.15,16.81,-13.28,30.55
164827,0.12,-0.46,1.04,-7.66,14.72,-14.93,30.55
164837,0.10,-0.44,1.04,-7.18,11.50,-16.46,30.55
164847,0.08,-0.43,1.04,-5.48,8.40,-17.48,30.55
164857,0.05,-0.43,1.03,-4.05,5.60,-17.54,30.55
164867,0.03,-0.41,1.03,-3.01,3.19,-17.39,30.55
164877,0.02,-0.39,1.03,-2.84,0.52,-16.02,30.60
164887,0.00,-0.38,1.01,-3.30,-1.89,-14.15,30.60
164897,0.00,-0.36,1.01,-4.02,-4.12,-13.37,30.60
164907,-0.03,-0.41,0.94,-5.02,-7.15,-9.86,30.60
164917,-0.01,-0.35,1.00,-8.92,-7.22,-6.82,30.65
164927,-0.00,-0.35,1.02,-7.27,-6.12,-2.47,30.60
164937,0.02,-0.36,1.03,-4.72,-1.82,0.81,30.60
164947,0.04,-0.36,1.04,-2.32,1.47,2.21,30.55
164957,0.05,-0.36,1.03,-0.32,3.11,2.00,30.65
164967,0.04,-0.35,1.04,0.89,2.61,2.11,30.65
164977,0.05,-0.35,1.04,1.16,1.22,2.55,30.65
164987,0.06,-0.35,1.02,0.61,0.37,2.76,30.65
164997,0.07,-0.36,1.01,-0.75,-0.14,2.79,30.74
165007,0.08,-0.36,1.00,-1.57,-0.29,3.11,30.65
165017,0.09,-0.37,1.01,-1.82,-0.41,4.06,30.55
165027,0.10,-0.39,1.02,-1.28,0.67,3.98,30.69
165037,0.12,-0.42,1.04,-0.67,0.18,3.08,30.60
165047,0.13,-0.43,1.05,0.08,-1.05,1.34,30.60
165057,0.14,-0.44,1.04,1.11,-1.77,-1.68,30.60
165067,0.14,-0.43,1.02,2.14,-1.94,-4.18,30.69
165077,0.13,-0.42,1.02,2.81,-2.49,-6.47,30.60
165087,0.11,-0.40,1.02,3.16,-3.54,-8.09,30.55
165097,0.10,-0.37,1.00,2.96,-4.29,-8.44,30.55
165107,0.09,-0.35,1.00,2.84,-4.63,-8.06,30.46
165117,0.09,-0.34,0.97,2.00,-4.21,-7.45,30.65
165127,0.09,-0.33,0.95,1.40,-3.89,-7.10,30.65
165137,0.09,-0.32,0.94,0.15,-4.12,-6.61,30.65
165147,0.09,-0.32,0.92,-1.28,-3.60,-6.66,30.65
165157,0.09,-0.31,0.93,-2.92,-2.61,-6.58,30.46
165167,0.08,-0.31,0.92,-2.98,-2.00,-6.38,30.69
165177,0.07,-0.32,0.93,-3.47,-1.73,-6.32,30.69
165187,0.05,-0.32,0.93,-4.53,-2.73,-6.72,30.60
165197,0.04,-0.33,0.92,-5.68,-3.01,-6.21,30.69
165207,0.03,-0.32,0.92,-7.30,-3.91,-4.06,30.69
165217,0.02,-0.34,0.92,-8.70,-3.62,-0.18,30.55
165227,0.05,-0.36,0.93,-9.62,-0.53,4.55,30.60
165237,0.08,-0.39,0.94,-10.23,4.37,8.81,30.65
165247,0.10,-0.43,0.94,-10.31,9.19,11.33,30.55
165257,0.12,-0.45,0.95,-11.21,12.12,11.65,30.55
165267,0.13,-0.47,0.99,-12.20,11.44,8.84,30.65
165277,0.14,-0.47,1.01,-13.15,7.86,4.08,30.65
165287,0.14,-0.48,1.03,-13.48,2.27,-1.66,30.74
165297,0.13,-0.46,1.03,-13.94,-2.73,-6.79,30.74
165307,0.11,-0.44,1.05,-13.36,-5.63,-8.81,30.60
165317,0.12,-0.41,1.04,-12.76,-4.72,-9.27,30.60
165327,0.10,-0.39,1.03,-12.08,-1.85,-8.02,30.60
165337,0.09,-0.38,1.04,-11.92,2.98,-5.60,30.51
165347,0.08,-0.37,1.04,-10.95,6.95,-2.96,30.65
165357,0.07,-0.37,1.05,-9.39,9.80,-0.60,30.60
165367,0.07,-0.38,1.06,-7.79,10.64,0.29,30.51
165377,0.07,-0.39,1.07,-6.11,9.98,-0.08,30.55
165387,0.08,-0.39,1.04,-4.72,8.02,-1.63,30.65
165397,0.08,-0.39,1.02,-3.63,6.40,-2.53,30.55
165407,0.10,-0.39,1.01,-3.73,5.73,-2.73,30.65
165417,0.10,-0.39,1.00,-4.79,6.66,-2.72,30.65
165427,0.11,-0.40,1.00,-5.97,8.95,-2.38,30.65
165437,0.10,-0.39,0.99,-7.28,10.56,-2.46,30.55
165447,0.10,-0.40,1.00,-8.35,10.44,-2.34,30.55
165457,0.10,-0.40,1.00,-9.31,9.80,-2.70,30.69
165467,0.09,-0.39,1.01,-9.15,8.34,-3.37,30.60
165477,0.09,-0.40,1.00,-8.14,7.34,-4.55,30.60
165487,0.08,-0.39,1.00,-7.07,4.58,-5.76,30.60
165497,0.06,-0.42,1.08,-11.54,-3.19,-8.58,30.69
165507,0.09,-0.34,0.97,-9.28,3.16,-4.58,30.51
165517,0.06,-0.37,0.99,-9.51,2.11,-4.06,30.65
165527,0.06,-0.37,0.99,-9.98,4.14,-2.73,30.65
165537,0.06,-0.38,1.00,-9.30,3.65,-2.55,30.65
165547,0.05,-0.37,1.00,-7.98,1.08,-2.95,30.55
165557,0.05,-0.37,0.99,-6.63,-1.94,-2.96,30.55
165567,0.05,-0.36,0.97,-5.25,-3.08,-2.12,30.55
165577,0.06,-0.36,0.96,-4.29,-3.45,-0.85,30.55
165587,0.05,-0.36,0.95,-3.63,-2.60,0.34,30.55
165597,0.06,-0.37,0.93,-3.47,-2.35,2.55,30.60
165607,0.08,-0.38,0.94,-2.70,-1.42,3.98,30.60
165617,0.08,-0.38,0.95,-1.80,-1.10,4.44,30.69
165627,0.09,-0.40,0.96,-1.71,-2.47,3.83,30.60
165637,0.10,-0.39,0.96,-1.48,-5.89,2.05,30.60
165647,0.10,-0.39,0.96,-1.77,-9.22,0.70,30.65
165657,0.10,-0.39,0.96,-2.44,-12.75,0.43,30.60
165667,0.11,-0.39,0.95,-2.46,-13.97,0.43,30.65
165677,0.12,-0.38,0.94,-2.50,-13.27,1.10,30.55
165687,0.13,-0.38,0.95,-2.66,-12.75,1.63,30.65
165697,0.12,-0.38,0.95,-2.63,-12.67,2.32,30.55
165707,0.13,-0.38,0.96,-2.67,-12.56,2.47,30.55
165717,0.14,-0.37,0.96,-2.85,-13.54,2.06,30.65
165727,0.15,-0.36,0.97,-3.82,-14.12,1.73,30.55
165737,0.15,-0.35,0.95,-4.93,-14.20,1.68,30.60
165747,0.16,-0.35,0.94,-5.48,-12.76,2.40,30.60
165757,0.16,-0.35,0.94,-6.35,-10.89,2.84,30.60
165767,0.17,-0.35,0.96,-6.93,-9.69,2.73,30.69
165777,0.17,-0.36,0.97,-6.78,-8.53,2.26,30.60
165787,0.18,-0.36,0.99,-6.66,-8.18,1.30,30.69
165797,0.18,-0.36,0.99,-6.40,-7.74,0.41,30.60
165807,0.18,-0.36,0.99,-6.44,-6.55,0.06,30.65
165817,0.18,-0.36,0.98,-7.25,-4.69,0.00,30.65
165827,0.17,-0.36,0.97,-7.98,-2.89,0.93,30.55
165837,0.18,-0.37,0.98,-10.11,-0.90,2.03,30.65
165847,0.19,-0.38,0.97,-11.95,1.62,2.29,30.55
165857,0.20,-0.40,0.99,-13.04,3.86,1.48,30.55
165867,0.20,-0.42,1.00,-13.04,4.76,0.09,30.65
165877,0.20,-0.43,1.02,-13.01,5.05,-1.76,30.65
165887,0.19,-0.43,1.01,-12.37,4.81,-3.74,30.60
165897,0.20,-0.43,1.00,-12.79,5.83,-5.56,30.69
165907,0.19,-0.42,0.99,-13.73,7.88,-6.41,30.69
165917,0.19,-0.43,0.99,-14.52,10.37,-6.32,30.60
165927,0.18,-0.45,1.01,-14.87,12.82,-6.50,30.51
165937,0.15,-0.46,1.01,-15.16,15.50,-7.53,30.60
165947,0.13,-0.45,1.03,-16.38,15.31,-7.13,30.65
165957,0.12,-0.47,1.05,-14.70,16.17,-7.77,30.69
165967,0.12,-0.50,1.05,-13.71,17.88,-9.04,30.65
165977,0.09,-0.51,1.06,-11.88,16.69,-9.37,30.55
165987,0.07,-0.51,1.06,-10.31,16.23,-9.63,30.65
165997,0.04,-0.52,1.07,-7.30,14.02,-9.15,30.65
166007,0.03,-0.53,1.08,-4.15,11.62,-7.76,30.55
166017,0.02,-0.52,1.06,-1.65,9.82,-6.23,30.55
166027,0.02,-0.51,1.06,-0.50,8.21,-4.24,30.55
166037,0.02,-0.50,1.04,0.93,5.85,-2.63,30.65
