Timestamp,Acce_X,Acce_Y,Acce_Z,Gyro_X,Gyro_Y,Gyro_Z,Temp
48977,-0.00,0.10,1.04,-5.59,-8.41,17.28,32.77
48987,0.10,0.08,1.07,-6.96,-5.82,10.95,32.77
48997,0.13,0.08,1.14,-6.70,-10.50,1.21,32.67
49007,0.16,0.09,1.10,-5.08,-23.74,-10.61,32.77
49017,0.09,0.10,1.06,-5.36,-32.84,-18.02,32.77
49027,0.04,0.13,1.02,-3.62,-38.93,-21.36,32.77
49037,0.00,0.16,0.95,-3.33,-28.02,-20.20,32.77
49047,-0.02,0.17,0.96,-2.31,-10.82,-16.08,32.67
49057,-0.05,0.18,0.99,-1.34,2.99,-11.39,32.77
49067,-0.10,0.16,1.03,0.02,13.65,-5.59,32.67
49077,-0.13,0.10,1.07,3.45,14.00,0.61,32.58
49087,-0.12,0.06,1.10,6.27,12.20,8.08,32.67
49097,-0.05,0.04,1.10,8.03,10.47,12.46,32.67
49107,0.02,0.04,1.09,8.95,8.27,12.08,32.67
49117,0.07,0.04,1.08,8.52,7.16,9.59,32.67
49127,0.07,0.07,1.07,8.12,5.97,6.56,32.67
49137,0.04,0.06,1.08,6.73,1.33,3.98,32.77
49147,0.02,0.05,1.08,4.93,0.69,2.32,32.77
49157,-0.06,0.01,1.11,0.76,-1.71,5.21,32.77
49167,-0.11,-0.01,1.18,0.14,-4.47,11.88,32.67
49177,-0.11,-0.03,1.16,2.06,-9.44,18.85,32.77
49187,-0.06,-0.04,1.14,2.60,-8.75,24.63,32.77
49197,-0.01,-0.06,1.15,3.44,-8.08,27.07,32.77
49207,0.03,-0.09,1.11,1.86,-7.47,26.52,32.81
49217,0.04,-0.10,1.13,0.96,-15.28,24.92,32.62
49227,0.04,-0.10,1.11,-0.08,-21.54,25.02,32.72
49237,0.04,-0.09,1.11,0.24,-27.04,26.18,32.72
49247,0.10,-0.09,1.07,0.63,-23.94,26.17,32.81
49257,0.13,-0.10,1.06,-0.63,-18.14,24.08,32.62
49267,0.13,-0.13,1.07,-2.69,-11.62,20.37,32.72
49277,0.10,-0.16,1.08,-3.15,-0.75,17.50,32.81
49287,0.02,-0.19,1.16,0.56,11.47,17.57,32.72
49297,-0.01,-0.19,1.19,9.07,17.42,19.97,32.81
49307,-0.05,-0.17,1.22,18.72,20.17,24.40,32.72
49317,-0.03,-0.15,1.20,25.27,18.96,27.60,32.72
49327,-0.01,-0.13,1.16,29.39,13.45,28.98,32.72
49337,0.00,-0.09,1.11,29.50,1.71,27.69,32.72
49347,0.03,-0.05,1.06,23.76,-6.43,25.05,32.81
49357,0.04,-0.03,1.05,17.15,-12.67,22.50,32.81
49367,0.07,0.01,1.01,9.91,-13.13,18.79,32.62
49377,0.07,0.03,0.98,3.53,-12.70,13.92,32.77
49387,0.05,0.03,0.99,-3.33,-9.98,10.67,32.72
49397,0.05,0.01,1.04,-3.91,-0.15,10.43,32.72
49407,0.11,-0.02,1.09,2.23,18.47,10.52,32.81
49417,0.13,-0.05,1.13,15.92,33.88,8.76,32.67
49427,0.17,-0.06,1.12,27.60,43.56,4.18,32.72
49437,0.18,-0.04,1.05,31.88,46.72,-2.58,32.72
49447,0.14,-0.03,1.03,28.35,36.96,-10.84,32.62
49457,0.09,0.00,0.99,23.59,21.05,-17.27,32.67
49467,-0.02,0.03,0.95,15.10,10.15,-16.90,32.77
49477,-0.12,0.06,0.91,7.01,0.50,-8.34,32.67
49487,-0.15,0.08,0.86,0.93,2.85,6.73,32.86
49497,-0.10,0.06,0.87,-3.30,9.50,20.60,32.77
49507,-0.03,0.03,0.88,-6.50,12.50,28.52,32.77
49517,0.04,-0.00,0.94,-9.92,10.89,31.05,32.77
49527,0.10,-0.04,1.00,-11.59,-3.18,27.60,32.77
49537,0.15,-0.07,1.02,-11.42,-16.32,20.43,32.67
49547,0.17,-0.10,1.01,-11.51,-23.98,12.56,32.77
49557,0.20,-0.10,0.96,-11.31,-23.80,5.73,32.77
49567,0.21,-0.10,0.92,-12.26,-8.73,-0.56,32.77
49577,0.18,-0.10,0.91,-12.98,12.55,-3.66,32.67
49587,0.12,-0.11,0.93,-13.85,36.85,-2.50,32.77
49597,0.05,-0.12,0.98,-13.80,52.98,1.79,32.77
49607,-0.01,-0.13,1.03,-15.16,56.85,6.93,32.77
49617,-0.05,-0.13,1.10,-18.34,49.66,11.30,32.67
49627,-0.04,-0.15,1.13,-20.17,34.18,13.45,32.77
49637,-0.02,-0.15,1.15,-21.39,10.37,10.98,32.67
49647,0.03,-0.16,1.10,-24.90,-7.59,5.05,32.67
49657,0.05,-0.17,1.05,-31.37,-16.37,-1.18,32.77
49667,0.01,-0.17,1.04,-38.47,-21.05,-3.92,32.67
49677,-0.02,-0.16,1.03,-44.53,-18.73,-3.01,32.77
49687,-0.09,-0.16,1.05,-50.02,-16.06,2.38,32.86
49697,-0.12,-0.18,1.10,-52.24,-16.05,10.60,32.77
49707,-0.08,-0.20,1.12,-52.03,-19.04,16.52,32.77
49717,-0.05,-0.21,1.11,-55.42,-23.53,20.50,32.72
49727,-0.04,-0.23,1.17,-56.73,-32.87,20.98,32.62
49737,-0.03,-0.24,1.22,-53.27,-47.08,20.09,32.72
49747,-0.03,-0.25,1.24,-49.68,-55.47,19.98,32.72
49757,-0.05,-0.25,1.27,-43.24,-64.56,21.04,32.72
49767,-0.05,-0.25,1.24,-36.31,-65.02,23.48,32.62
49777,-0.01,-0.26,1.18,-27.51,-42.87,28.55,32.72
49787,0.04,-0.25,1.07,-18.00,2.08,35.79,32.72
49797,0.04,-0.24,1.08,-12.32,44.55,41.11,32.72
49807,0.03,-0.24,1.09,-8.90,67.51,42.00,32.81
49817,-0.03,-0.23,1.15,-10.87,70.46,39.80,32.72
49827,-0.09,-0.24,1.23,-12.35,48.02,37.11,32.72
49837,-0.11,-0.23,1.25,-13.44,21.48,35.65,32.62
49847,-0.13,-0.24,1.22,-14.81,-6.29,36.12,32.72
49857,-0.06,-0.25,1.17,-15.05,-22.67,36.08,32.81
49867,-0.01,-0.27,1.12,-14.92,-26.55,35.92,32.72
49877,0.06,-0.26,1.10,-12.17,-13.98,35.76,32.72
49887,0.10,-0.27,1.14,-3.50,2.93,34.85,32.72
49897,0.16,-0.30,1.08,2.78,20.58,31.57,32.81
49907,0.16,-0.29,1.11,3.74,28.58,23.77,32.72
49917,0.10,-0.28,1.16,3.18,14.41,14.23,32.72
49927,0.04,-0.25,1.14,1.40,-8.53,4.73,32.81
49937,-0.03,-0.22,1.14,-0.81,-25.15,-1.63,32.72
49947,-0.10,-0.20,1.09,-0.98,-30.81,-0.56,32.77
49957,-0.13,-0.18,1.05,1.80,-29.82,5.44,32.81
49967,-0.09,-0.18,0.98,3.22,-19.25,11.69,32.72
49977,-0.06,-0.17,0.94,5.51,-10.35,16.55,32.72
49987,-0.03,-0.17,0.92,4.98,-0.49,19.98,32.77
49997,-0.01,-0.17,0.90,0.49,3.95,23.50,32.72
50007,0.04,-0.20,0.95,-3.83,7.79,26.24,32.72
50017,0.12,-0.23,1.00,-8.09,5.76,23.31,32.81
50027,0.17,-0.24,1.03,-10.44,1.53,16.92,32.77
50037,0.17,-0.25,1.06,-11.39,-4.26,8.21,32.72
50047,0.12,-0.22,1.10,-10.72,-15.01,1.13,32.72
50057,0.08,-0.21,1.09,-8.63,-15.15,-0.93,32.67
50067,0.07,-0.20,1.06,-3.25,-6.70,-0.29,32.67
50077,0.07,-0.20,1.03,-0.56,15.08,2.15,32.77
50087,0.06,-0.22,1.07,1.71,25.18,2.47,32.77
50097,0.04,-0.21,1.08,4.37,22.61,-0.09,32.67
50107,0.01,-0.19,1.04,6.32,9.01,-2.27,32.67
50117,0.03,-0.16,0.94,4.34,0.23,-3.76,32.77
50127,0.03,-0.16,0.92,-1.74,0.44,-3.36,32.77
50137,0.03,-0.16,0.93,-7.98,3.24,-2.24,32.67
50147,0.03,-0.17,0.97,-11.18,12.81,0.12,32.67
50157,0.04,-0.18,1.02,-10.37,22.29,1.10,32.77
50167,0.03,-0.18,1.03,-8.11,26.44,0.67,32.77
50177,-0.01,-0.16,1.08,-6.55,18.85,-0.17,32.67
50187,-0.03,-0.15,1.08,-6.63,6.85,0.58,32.77
50197,-0.00,-0.15,1.06,-5.59,-1.74,1.45,32.67
50207,0.03,-0.16,1.02,-6.56,-3.45,2.35,32.77
50217,0.05,-0.18,1.05,-6.43,-3.76,1.42,32.77
50227,0.05,-0.14,1.06,-5.69,-9.98,-2.00,32.67
50237,0.03,-0.11,1.01,-5.31,-19.47,-5.39,32.77
50247,-0.03,-0.09,0.96,-5.76,-30.14,-7.05,32.77
50257,-0.03,-0.07,0.85,-8.93,-29.24,-2.96,32.67
50267,-0.00,-0.09,0.77,-16.40,-13.30,5.48,32.77
50277,0.04,-0.13,0.84,-26.60,7.25,13.28,32.67
50287,0.09,-0.20,1.01,-32.76,20.34,15.89,32.67
50297,0.10,-0.25,1.16,-37.54,21.56,15.33,32.67
50307,0.11,-0.29,1.32,-33.24,4.43,10.63,32.77
50317,0.15,-0.31,1.37,-22.72,-6.46,4.46,32.77
50327,0.15,-0.31,1.36,-11.71,-9.80,-0.73,32.67
50337,0.17,-0.31,1.31,-1.07,-8.53,-3.85,32.77
50347,0.18,-0.28,1.20,6.72,1.05,-6.12,32.77
50357,0.18,-0.28,1.11,9.86,9.19,-8.95,32.77
50367,0.17,-0.27,1.06,9.34,9.21,-13.69,32.67
50377,0.12,-0.23,1.02,6.34,3.83,-19.65,32.77
50387,0.04,-0.19,1.01,3.89,-6.81,-26.58,32.77
50397,-0.07,-0.16,0.93,2.85,-18.52,-28.31,32.77
50407,-0.14,-0.13,0.86,-2.08,-22.67,-22.46,32.77
50417,-0.17,-0.12,0.86,-7.40,-21.89,-14.05,32.77
50427,-0.14,-0.14,0.89,-11.97,-12.67,-4.89,32.67
50437,-0.10,-0.16,0.96,-14.21,-2.47,1.08,32.77
50447,-0.07,-0.18,1.04,-12.14,-2.95,3.97,32.77
50457,-0.01,-0.21,1.12,-7.07,-4.90,3.11,32.77
50467,0.03,-0.22,1.18,-1.40,-8.09,-0.06,32.67
50477,0.05,-0.23,1.19,3.45,-11.50,-3.30,32.77
50487,0.06,-0.22,1.17,6.96,-8.40,-5.01,32.67
50497,0.06,-0.21,1.13,10.23,-1.73,-5.53,32.77
50507,0.06,-0.21,1.09,12.20,6.75,-4.53,32.81
50517,0.07,-0.20,1.06,12.03,14.21,-4.41,32.81
50527,0.06,-0.20,1.05,10.46,19.44,-3.94,32.72
50537,0.04,-0.19,1.07,8.55,16.82,-5.44,32.72
50547,0.02,-0.19,1.09,5.95,9.08,-8.53,32.72
50557,-0.01,-0.18,1.10,5.30,-2.03,-9.97,32.72
50567,-0.02,-0.18,1.10,2.92,-10.11,-9.71,32.72
50577,-0.03,-0.19,1.09,1.63,-13.92,-8.73,32.72
50587,0.00,-0.21,1.06,3.27,-5.80,-6.40,32.72
50597,0.01,-0.19,1.06,5.86,8.14,-3.42,32.81
50607,0.04,-0.20,1.07,8.50,17.79,-2.85,32.72
50617,0.05,-0.18,1.06,8.76,25.13,-4.05,32.72
50627,0.02,-0.17,1.06,4.31,25.88,-7.69,32.72
50637,-0.05,-0.16,1.09,-0.49,17.65,-9.60,32.62
50647,-0.14,-0.15,1.09,-2.75,6.61,-7.60,32.81
50657,-0.15,-0.16,1.10,-2.64,2.37,-2.43,32.72
50667,-0.12,-0.15,1.08,-0.72,2.06,2.98,32.72
50677,-0.07,-0.16,1.03,0.26,2.18,6.63,32.72
50687,-0.02,-0.18,1.00,-0.32,-0.21,8.03,32.72
50697,0.04,-0.19,0.97,-2.03,-3.66,7.11,32.72
50707,0.09,-0.19,0.93,-5.04,-5.01,4.40,32.72
50717,0.12,-0.18,0.91,-9.33,-5.47,1.22,32.81
50727,0.14,-0.19,0.92,-14.26,-4.26,-2.46,32.81
50737,0.14,-0.19,0.97,-18.09,-3.73,-6.52,32.72
50747,0.12,-0.20,1.01,-20.06,-3.95,-10.37,32.72
50757,0.09,-0.21,1.03,-18.38,-1.11,-11.24,32.72
50767,0.08,-0.24,1.04,-13.77,-0.26,-11.82,32.81
50777,0.05,-0.24,1.01,-12.52,0.26,-11.92,32.72
50787,0.02,-0.25,0.99,-13.02,-1.76,-12.50,32.72
50797,-0.01,-0.24,0.98,-12.63,-9.44,-11.51,32.62
50807,0.01,-0.21,0.94,-15.13,-13.76,-8.73,32.72
50817,0.05,-0.19,0.92,-17.74,-12.44,-5.92,32.72
50827,0.11,-0.23,0.91,-16.79,-11.89,-5.59,32.72
50837,0.15,-0.26,0.87,-16.56,-12.76,-8.87,32.81
50847,0.16,-0.28,0.84,-19.05,-11.77,-12.34,32.72
50857,0.15,-0.28,0.83,-23.25,-12.50,-17.28,32.72
50867,0.06,-0.27,0.90,-27.05,-20.66,-17.57,32.81
50877,0.03,-0.24,0.93,-28.52,-31.82,-13.82,32.77
50887,0.06,-0.21,0.91,-27.19,-36.87,-8.20,32.72
50897,0.14,-0.18,0.85,-25.22,-37.18,-5.74,32.72
50907,0.22,-0.17,0.77,-27.83,-28.56,-6.18,32.72
50917,0.24,-0.19,0.78,-38.76,-12.89,-7.95,32.67
50927,0.21,-0.22,0.92,-53.56,3.24,-9.10,32.81
50937,0.17,-0.30,1.17,-57.83,13.24,-9.77,32.72
50947,0.13,-0.37,1.36,-47.62,14.99,-9.62,32.81
50957,0.13,-0.40,1.46,-27.11,10.44,-10.34,32.86
50967,0.14,-0.43,1.43,-4.66,10.24,-11.04,32.72
50977,0.19,-0.41,1.34,15.16,11.89,-13.89,32.62
50987,0.29,-0.35,1.13,24.53,23.10,-19.01,32.72
50997,0.36,-0.34,1.01,21.91,42.29,-29.24,32.67
51007,0.35,-0.35,0.99,12.92,54.34,-42.47,32.72
51017,0.25,-0.35,1.06,3.57,57.48,-52.03,32.81
51027,0.12,-0.37,1.17,1.11,53.48,-55.83,32.77
51037,0.05,-0.39,1.19,5.53,41.59,-56.46,32.86
51047,-0.01,-0.38,1.20,8.50,29.30,-55.33,32.77
51057,-0.05,-0.39,1.20,9.53,19.42,-52.95,32.67
51067,-0.08,-0.37,1.18,10.47,9.02,-50.06,32.77
51077,-0.08,-0.34,1.12,10.87,2.76,-46.92,32.77
51087,-0.01,-0.34,1.05,8.05,8.64,-47.74,32.77
51097,0.03,-0.34,1.01,6.26,11.66,-51.79,32.77
51107,0.05,-0.34,0.97,0.40,15.54,-56.35,32.58
51117,0.01,-0.33,1.05,-3.73,6.70,-61.74,32.77
51127,-0.06,-0.32,1.08,-6.72,-1.40,-62.46,32.77
51137,-0.08,-0.30,1.10,-8.50,-10.49,-60.90,32.77
51147,-0.11,-0.29,1.12,-11.77,-17.97,-56.15,32.77
51157,-0.11,-0.28,1.12,-12.03,-18.82,-49.31,32.77
51167,-0.09,-0.28,1.12,-12.67,-12.34,-42.31,32.67
51177,-0.05,-0.28,1.13,-13.28,-1.21,-38.11,32.77
51187,-0.03,-0.29,1.13,-14.84,7.92,-36.17,32.67
51197,-0.02,-0.29,1.13,-18.24,10.00,-35.85,32.77
51207,-0.04,-0.28,1.15,-20.89,4.87,-34.55,32.77
51217,-0.04,-0.28,1.16,-20.53,-3.24,-32.56,32.67
51227,-0.02,-0.29,1.12,-20.12,-6.63,-28.70,32.67
51237,0.05,-0.30,1.10,-20.11,-5.89,-25.82,32.77
51247,0.07,-0.30,1.10,-18.35,-3.47,-25.44,32.67
51257,0.07,-0.28,1.08,-16.52,3.48,-23.79,32.77
51267,0.05,-0.27,1.10,-12.53,4.61,-22.70,32.77
51277,0.03,-0.26,1.13,-10.27,-0.15,-19.98,32.77
51287,0.00,-0.26,1.15,-8.60,-8.41,-16.63,32.77
51297,0.03,-0.23,1.10,-8.29,-14.08,-12.72,32.67
51307,0.07,-0.22,1.06,-9.18,-10.35,-9.79,32.77
51317,0.12,-0.21,1.03,-9.74,-0.47,-9.33,32.77
51327,0.12,-0.20,1.03,-11.51,10.32,-8.67,32.77
51337,0.11,-0.21,1.10,-10.76,18.21,-7.89,32.67
51347,0.09,-0.21,1.12,-8.37,19.08,-7.04,32.67
51357,0.10,-0.21,1.12,-5.44,19.68,-6.18,32.77
51367,0.12,-0.22,1.06,-3.34,19.40,-7.86,32.62
51377,0.12,-0.22,1.01,-4.35,20.79,-8.26,32.72
51387,0.11,-0.20,1.01,-3.47,20.15,-10.11,32.72
51397,0.09,-0.20,0.99,-2.90,13.86,-11.47,32.81
51407,0.05,-0.18,1.01,-4.15,5.76,-10.66,32.72
51417,0.04,-0.17,1.01,-4.50,-7.34,-11.08,32.62
51427,0.04,-0.17,0.97,-6.60,-15.82,-10.00,32.81
51437,0.07,-0.16,0.96,-9.57,-16.70,-9.10,32.72
51447,0.09,-0.16,0.97,-11.74,-17.65,-10.55,32.81
51457,0.10,-0.17,0.98,-14.15,-17.80,-12.12,32.81
51467,0.11,-0.15,0.98,-14.81,-22.12,-16.06,32.72
51477,0.08,-0.16,0.96,-13.57,-26.63,-17.77,32.72
51487,0.05,-0.15,0.96,-9.47,-26.73,-15.69,32.72
51497,0.06,-0.16,0.93,-6.11,-20.35,-11.47,32.72
51507,0.07,-0.14,0.92,-5.11,-9.85,-7.11,32.72
51517,0.11,-0.14,0.94,-7.44,-0.44,-6.58,32.72
51527,0.09,-0.14,1.01,-9.53,-3.69,-10.93,32.72
51537,0.02,-0.14,1.01,-11.16,-12.49,-12.52,32.81
51547,-0.04,-0.13,1.06,-14.06,-22.98,-10.29,32.81
51557,-0.05,-0.13,1.07,-14.18,-34.93,-4.52,32.72
51567,-0.02,-0.12,1.08,-13.59,-41.40,0.56,32.72
51577,0.03,-0.12,1.06,-13.54,-38.85,4.76,32.72
51587,0.08,-0.12,1.06,-14.26,-28.75,8.29,32.72
51597,0.12,-0.12,1.12,-12.64,-19.01,9.08,32.81
51607,0.15,-0.12,1.13,-11.62,-8.44,9.04,32.81
51617,0.11,-0.11,1.16,-11.22,-1.42,10.27,32.72
51627,0.09,-0.11,1.20,-9.18,-1.40,13.15,32.72
51637,0.06,-0.09,1.22,-6.87,-5.24,17.68,32.72
51647,0.07,-0.09,1.24,-3.77,-12.11,23.53,32.67
51657,0.11,-0.09,1.23,0.20,-16.02,30.14,32.81
51667,0.19,-0.09,1.22,5.76,-12.92,34.90,32.72
51677,0.24,-0.09,1.18,11.15,-4.56,36.46,32.72
51687,0.28,-0.10,1.15,14.58,6.29,35.59,32.77
51697,0.31,-0.12,1.13,15.45,15.94,32.49,32.72
51707,0.34,-0.12,1.13,16.08,18.20,25.39,32.72
51717,0.36,-0.13,1.11,15.76,17.82,14.53,32.62
51727,0.31,-0.13,1.12,13.51,8.60,5.22,32.67
51737,0.25,-0.13,1.13,12.12,-7.83,-2.17,32.81
51747,0.23,-0.14,1.08,12.56,-17.31,-5.47,32.62
51757,0.22,-0.13,1.05,14.20,-20.03,-6.52,32.72
51767,0.22,-0.10,1.03,16.06,-17.47,-6.87,32.77
51777,0.21,-0.09,1.02,18.79,-12.69,-7.42,32.72
51787,0.21,-0.09,0.98,22.50,-4.61,-8.72,32.81
51797,0.19,-0.10,0.95,24.32,5.79,-9.34,32.72
51807,0.14,-0.09,0.93,21.86,9.79,-8.27,32.58
51817,0.13,-0.08,0.92,15.44,13.36,-5.19,32.72
51827,0.11,-0.06,0.92,6.95,12.52,-3.88,32.77
51837,0.12,-0.07,0.94,-2.72,6.47,-5.89,32.67
51847,0.10,-0.07,0.95,-10.15,-8.27,-9.19,32.67
51857,0.07,-0.06,0.97,-16.61,-23.56,-11.19,32.77
51867,0.06,-0.07,0.98,-22.20,-29.54,-9.95,32.67
51877,0.09,-0.07,0.99,-23.83,-27.47,-7.68,32.67
51887,0.11,-0.07,1.01,-26.21,-16.26,-4.63,32.77
51897,0.11,-0.08,1.05,-24.08,-3.05,0.17,32.77
51907,0.12,-0.09,1.05,-20.37,11.27,4.99,32.77
51917,0.09,-0.10,1.07,-18.35,21.34,10.78,32.67
51927,0.07,-0.11,1.11,-16.24,23.50,15.77,32.77
51937,0.06,-0.13,1.11,-14.26,20.56,19.98,32.77
51947,0.07,-0.13,1.12,-10.38,12.92,22.53,32.77
51957,0.08,-0.14,1.08,-8.75,7.36,23.25,32.67
51967,0.09,-0.14,1.08,-9.24,6.18,24.44,32.67
51977,0.09,-0.14,1.07,-8.27,1.94,25.73,32.77
51987,0.10,-0.14,1.03,-7.86,0.38,26.24,32.67
51997,0.08,-0.14,1.00,-9.92,1.79,28.72,32.67
52007,0.06,-0.13,0.98,-12.35,2.12,31.57,32.77
52017,0.02,-0.13,0.92,-17.27,5.57,36.96,32.67
52027,0.02,-0.13,0.91,-22.96,5.30,41.30,32.67
52037,-0.01,-0.14,0.88,-31.28,-0.40,45.71,32.86
52047,0.00,-0.15,0.86,-40.02,-11.73,48.69,32.67
52057,-0.00,-0.15,0.84,-52.18,-15.57,51.77,32.67
52067,0.04,-0.17,0.86,-59.95,-15.73,54.14,32.77
52077,0.08,-0.21,0.85,-67.60,-4.34,55.71,32.67
52087,0.14,-0.24,0.93,-70.93,0.92,54.90,32.77
52097,0.20,-0.27,0.96,-72.85,11.91,49.16,32.77
52107,0.18,-0.28,1.04,-71.19,12.78,45.21,32.77
52117,0.19,-0.29,1.12,-66.21,9.71,39.76,32.67
52127,0.15,-0.30,1.20,-59.45,2.98,34.24,32.67
52137,0.16,-0.31,1.24,-48.76,-11.73,28.35,32.67
52147,0.17,-0.33,1.19,-36.90,-19.24,24.67,32.67
52157,0.19,-0.32,1.16,-26.53,-20.50,22.00,32.67
52167,0.19,-0.33,1.11,-18.06,-16.26,20.09,32.67
52177,0.14,-0.34,1.13,-11.60,-11.19,20.70,32.77
52187,0.14,-0.37,1.12,-3.68,-12.90,20.89,32.67
52197,0.13,-0.37,1.12,1.34,-13.60,21.59,32.67
52207,0.17,-0.38,1.12,4.84,-20.41,20.09,32.67
52217,0.19,-0.39,1.11,8.37,-17.11,16.35,32.67
52227,0.20,-0.37,1.13,13.44,-18.78,13.47,32.77
52237,0.19,-0.36,1.11,17.10,-17.68,9.73,32.67
52247,0.17,-0.35,1.10,20.52,-18.03,7.01,32.67
52257,0.17,-0.32,1.08,23.68,-20.50,5.02,32.67
52267,0.17,-0.31,1.06,26.98,-17.71,4.03,32.77
52277,0.15,-0.29,1.04,29.62,-17.15,4.63,32.67
52287,0.16,-0.27,1.01,30.95,-12.95,5.08,32.77
52297,0.14,-0.26,0.99,31.11,-9.65,6.93,32.67
52307,0.14,-0.24,0.97,30.40,-7.28,8.27,32.67
52317,0.14,-0.23,0.95,26.50,-5.44,9.82,32.67
52327,0.15,-0.22,0.94,23.28,-6.29,9.86,32.77
52337,0.17,-0.21,0.95,18.75,-5.65,9.16,32.77
52347,0.20,-0.21,0.95,15.80,-4.79,6.78,32.67
52357,0.18,-0.19,0.95,11.83,-6.26,7.63,32.77
52367,0.18,-0.20,0.96,8.49,-5.88,7.13,32.77
52377,0.13,-0.19,0.97,4.27,-8.50,8.14,32.77
52387,0.16,-0.20,0.99,0.44,-9.47,7.59,32.77
52397,0.17,-0.22,1.00,-2.26,-4.60,6.75,32.72
52407,0.19,-0.22,1.01,-3.59,-6.27,6.70,32.72
52417,0.20,-0.22,1.02,-4.98,-3.53,5.51,32.62
52427,0.18,-0.22,1.06,-4.55,-6.05,4.63,32.72
52437,0.20,-0.23,1.08,-1.89,-9.42,1.80,32.72
52447,0.21,-0.23,1.07,-0.49,-8.46,-0.02,32.72
52457,0.21,-0.23,1.05,-0.23,-8.56,-2.09,32.72
52467,0.21,-0.24,1.05,-0.34,-5.42,-3.54,32.72
52477,0.20,-0.24,1.05,-0.46,-3.92,-5.01,32.72
52487,0.20,-0.24,1.05,-0.98,-2.75,-5.42,32.72
52497,0.20,-0.24,1.05,-0.41,-1.22,-5.69,32.72
52507,0.20,-0.24,1.04,0.99,0.09,-5.71,32.72
52517,0.22,-0.25,1.05,2.89,1.27,-5.77,32.62
52527,0.21,-0.24,1.04,2.96,2.60,-6.63,32.72
52537,0.22,-0.25,1.04,3.18,2.49,-7.79,32.72
52547,0.21,-0.25,1.04,2.89,2.67,-8.72,32.81
52557,0.20,-0.24,1.02,2.96,2.95,-9.60,32.72
52567,0.19,-0.25,1.02,2.18,3.73,-10.03,32.72
52577,0.19,-0.26,1.02,2.11,1.44,-10.35,32.72
52587,0.19,-0.26,1.00,0.52,-0.75,-10.89,32.72
52597,0.19,-0.26,1.02,-1.40,-1.63,-11.51,32.72
52607,0.20,-0.25,1.03,-2.53,-1.79,-11.86,32.62
52617,0.19,-0.24,1.02,-2.40,-0.47,-10.81,32.72
52627,0.21,-0.25,1.01,-2.18,3.30,-9.94,32.81
52637,0.20,-0.25,1.01,-2.17,5.76,-9.31,32.72
52647,0.20,-0.25,1.02,-2.61,4.15,-9.74,32.81
52657,0.21,-0.26,1.02,-3.62,2.18,-11.07,32.81
52667,0.20,-0.25,1.03,-4.35,0.37,-12.18,32.72
52677,0.19,-0.26,1.03,-4.79,-1.15,-13.04,32.72
52687,0.20,-0.25,1.01,-4.49,-1.28,-12.99,32.72
52697,0.20,-0.26,1.02,-4.56,-0.75,-12.89,32.72
52707,0.20,-0.26,1.01,-4.50,-0.18,-12.93,32.72
52717,0.20,-0.26,1.01,-5.62,0.37,-12.81,32.62
52727,0.18,-0.26,1.02,-5.74,-0.72,-12.14,32.81
52737,0.17,-0.26,1.02,-5.33,-1.18,-10.76,32.72
52747,0.17,-0.26,1.02,-4.35,-0.50,-7.98,32.72
52757,0.19,-0.26,1.01,-3.69,3.13,-5.01,32.62
52767,0.20,-0.26,1.00,-3.53,6.89,-3.24,32.62
52777,0.19,-0.27,1.03,-4.35,8.02,-2.35,32.62
52787,0.19,-0.26,1.03,-5.34,6.73,-2.92,32.81
52797,0.20,-0.27,1.03,-5.04,4.53,-3.71,32.72
52807,0.19,-0.25,1.04,-5.22,3.39,-4.23,32.62
52817,0.17,-0.25,1.04,-4.69,1.86,-4.32,32.86
52827,0.15,-0.25,1.05,-5.07,-0.06,-3.66,32.81
52837,0.15,-0.24,1.04,-4.79,-0.92,-2.35,32.62
52847,0.14,-0.23,1.04,-4.31,-1.08,-0.18,32.72
52857,0.15,-0.24,1.02,-3.88,0.69,2.44,32.77
52867,0.15,-0.23,1.03,-3.53,3.18,5.13,32.72
52877,0.17,-0.23,1.02,-3.56,5.63,6.64,32.72
52887,0.18,-0.24,1.01,-4.06,7.27,7.13,32.62
52897,0.18,-0.24,1.02,-4.84,7.15,7.33,32.77
52907,0.18,-0.23,1.03,-5.37,6.52,6.99,32.81
52917,0.19,-0.25,1.03,-5.76,6.00,6.64,32.62
52927,0.19,-0.25,1.03,-5.98,4.21,5.01,32.81
52937,0.19,-0.25,1.02,-6.79,3.30,3.37,32.77
52947,0.19,-0.26,1.02,-6.95,2.96,1.65,32.67
52957,0.19,-0.26,1.02,-7.50,2.43,0.56,32.77
52967,0.18,-0.25,1.02,-8.27,2.31,0.35,32.67
52977,0.18,-0.26,1.02,-8.79,3.47,0.60,32.77
52987,0.18,-0.26,1.01,-9.56,5.25,1.19,32.77
52997,0.17,-0.26,1.03,-9.28,5.10,2.23,32.67
53007,0.18,-0.27,1.03,-8.20,4.37,2.56,32.67
53017,0.19,-0.27,1.04,-7.30,5.56,2.79,32.67
53027,0.21,-0.28,1.04,-6.12,6.92,2.49,32.77
53037,0.21,-0.28,1.05,-4.96,8.15,1.47,32.77
53047,0.21,-0.29,1.07,-3.28,7.01,-0.02,32.77
53057,0.22,-0.29,1.07,-1.37,4.08,-2.40,32.67
53067,0.23,-0.30,1.05,-1.19,2.41,-5.21,32.67
53077,0.21,-0.29,1.05,-1.28,-0.17,-7.31,32.67
53087,0.21,-0.29,1.04,-1.76,-0.69,-8.78,32.67
53097,0.20,-0.28,1.03,-1.79,-0.26,-9.21,32.67
53107,0.19,-0.28,1.02,-1.85,1.34,-8.69,32.77
53117,0.18,-0.28,1.02,-1.95,3.10,-7.34,32.77
53127,0.19,-0.28,1.02,-1.73,3.74,-6.03,32.77
53137,0.19,-0.27,1.02,-2.12,4.34,-5.34,32.67
53147,0.18,-0.28,1.01,-2.60,5.05,-4.64,32.77
53157,0.18,-0.28,1.03,-3.34,3.74,-5.07,32.77
53167,0.18,-0.27,1.03,-4.12,2.29,-5.59,32.77
53177,0.17,-0.27,1.02,-4.69,1.31,-6.06,32.67
53187,0.16,-0.27,1.03,-4.96,-0.12,-5.50,32.86
53197,0.16,-0.26,1.03,-4.37,-0.92,-4.02,32.67
53207,0.16,-0.25,1.02,-4.12,0.61,-2.70,32.77
53217,0.16,-0.25,1.01,-3.83,2.63,-1.56,32.77
53227,0.15,-0.24,1.01,-4.08,3.66,-0.29,32.77
53237,0.15,-0.24,1.02,-4.29,3.19,0.89,32.77
53247,0.16,-0.25,1.01,-4.50,3.01,1.83,32.77
53257,0.17,-0.24,0.99,-4.81,3.18,2.87,32.77
53267,0.17,-0.25,1.01,-5.56,3.45,3.08,32.77
53277,0.18,-0.26,1.00,-6.96,3.07,2.75,32.62
53287,0.18,-0.26,1.01,-8.11,2.17,1.62,32.72
53297,0.18,-0.25,1.02,-8.61,0.08,0.82,32.72
53307,0.18,-0.25,1.02,-9.10,-1.36,0.26,32.62
53317,0.18,-0.25,1.03,-9.08,-1.50,0.24,32.72
53327,0.18,-0.25,1.03,-8.89,-0.43,0.78,32.72
53337,0.18,-0.26,1.03,-8.55,1.44,1.37,32.62
53347,0.18,-0.26,1.02,-8.27,2.55,2.09,32.72
53357,0.18,-0.26,1.04,-7.16,2.17,2.06,32.72
53367,0.19,-0.26,1.05,-6.08,-0.96,1.13,32.81
53377,0.20,-0.27,1.04,-5.86,-2.03,0.43,32.81
53387,0.20,-0.28,1.05,-5.01,-2.67,-0.46,32.72
53397,0.21,-0.27,1.04,-4.17,-1.36,-1.27,32.81
53407,0.21,-0.27,1.03,-4.15,-0.06,-2.31,32.72
53417,0.20,-0.28,1.03,-4.06,0.29,-2.61,32.72
53427,0.19,-0.28,1.02,-4.08,0.34,-2.79,32.72
53437,0.20,-0.27,1.02,-4.52,-0.05,-3.27,32.72
53447,0.19,-0.27,1.02,-5.48,-0.60,-3.97,32.72
53457,0.18,-0.27,1.03,-6.35,-1.16,-4.63,32.81
53467,0.17,-0.27,1.03,-6.23,-2.47,-4.63,32.81
53477,0.17,-0.26,1.03,-6.24,-3.80,-3.80,32.72
53487,0.17,-0.27,1.02,-6.46,-2.64,-2.82,32.81
53497,0.18,-0.27,1.01,-6.31,-1.04,-2.03,32.72
53507,0.18,-0.28,1.02,-6.26,1.30,-0.82,32.72
53517,0.19,-0.28,1.03,-5.88,3.54,-0.03,32.72
53527,0.19,-0.28,1.04,-5.51,2.99,-0.12,32.72
53537,0.19,-0.27,1.04,-4.84,0.24,-0.34,32.81
53547,0.20,-0.29,1.03,-4.64,-0.38,-0.58,32.77
53557,0.20,-0.28,1.02,-4.26,-0.26,-0.46,32.72
53567,0.21,-0.28,1.02,-4.38,1.77,0.02,32.72
53577,0.21,-0.29,1.01,-4.84,4.17,-0.29,32.72
53587,0.21,-0.28,1.02,-5.36,4.37,-0.89,32.77
53597,0.21,-0.29,1.02,-6.06,3.56,-1.95,32.72
53607,0.20,-0.28,1.03,-5.73,2.34,-2.52,32.62
53617,0.20,-0.28,1.04,-4.92,-0.46,-3.13,32.72
53627,0.20,-0.28,1.02,-4.90,-1.77,-3.76,32.77
53637,0.20,-0.28,1.02,-4.98,-2.26,-4.02,32.72
53647,0.19,-0.27,1.02,-4.98,-1.45,-3.40,32.72
53657,0.18,-0.27,1.01,-4.70,0.38,-2.11,32.72
53667,0.18,-0.28,1.01,-4.69,2.67,-0.99,32.77
53677,0.18,-0.28,1.02,-4.96,3.86,-0.15,32.72
53687,0.18,-0.28,1.02,-5.45,3.92,0.58,32.67
53697,0.18,-0.28,1.01,-5.69,3.10,1.22,32.77
53707,0.19,-0.28,1.02,-5.16,1.76,0.66,32.67
53717,0.20,-0.29,1.02,-5.77,1.63,-0.20,32.67
53727,0.18,-0.28,1.04,-5.11,0.09,-0.15,32.77
53737,0.18,-0.28,1.03,-3.53,-0.09,0.09,32.77
53747,0.19,-0.27,1.01,-2.63,1.27,0.56,32.77
53757,0.18,-0.28,1.00,-2.73,2.52,0.52,32.67
53767,0.18,-0.28,1.02,-2.89,2.02,0.53,32.77
53777,0.18,-0.27,1.01,-3.89,0.52,0.72,32.67
53787,0.17,-0.27,1.03,-4.31,-0.79,1.21,32.77
53797,0.17,-0.26,1.01,-4.29,-1.57,1.65,32.77
53807,0.17,-0.28,1.02,-4.17,-1.34,1.62,32.58
53817,0.18,-0.27,1.02,-4.34,-1.71,1.57,32.77
53827,0.18,-0.27,1.03,-4.08,-2.09,1.77,32.67
53837,0.19,-0.26,1.03,-3.47,-2.00,1.85,32.67
53847,0.18,-0.27,1.03,-3.04,-2.08,1.66,32.77
53857,0.18,-0.26,1.03,-2.93,-1.85,1.45,32.77
53867,0.18,-0.26,1.02,-2.99,-1.51,1.50,32.67
53877,0.18,-0.26,1.02,-2.90,-1.88,2.31,32.67
53887,0.18,-0.26,1.02,-2.63,-0.93,2.72,32.77
53897,0.20,-0.26,1.01,-2.31,0.17,3.28,32.67
53907,0.21,-0.26,1.00,-3.15,2.09,3.04,32.67
53917,0.21,-0.26,1.01,-3.73,2.03,2.29,32.67
53927,0.21,-0.27,1.01,-4.05,1.68,1.33,32.67
53937,0.21,-0.27,1.01,-4.72,1.30,0.21,32.77
53947,0.22,-0.27,1.01,-5.11,0.55,-0.38,32.67
53957,0.21,-0.27,1.01,-6.12,1.05,-1.07,32.67
53967,0.22,-0.27,1.00,-7.37,2.02,-1.74,32.77
53977,0.21,-0.28,1.01,-8.49,2.46,-2.60,32.67
