Millis,Acce_X,Acce_Y,Acce_Z,Gyro_X,Gyro_Y,Gyro_Z,Temp
37327,0.14,-0.08,1.01,31.18,-75.21,-48.04,31.35
37337,0.23,0.05,0.88,32.17,-73.62,-46.75,31.35
37347,0.34,0.07,0.77,36.73,-51.08,-37.77,31.35
37357,0.37,0.12,0.69,29.24,-20.05,-26.27,31.31
37367,0.32,0.05,0.81,19.49,8.48,-18.06,31.31
37377,0.27,-0.04,0.97,10.84,23.45,-18.06,31.21
37387,0.15,-0.10,1.14,8.23,15.39,-25.02,31.31
37397,0.08,-0.15,1.28,12.08,-5.21,-34.46,31.31
37407,0.09,-0.16,1.31,18.27,-24.44,-41.43,31.31
37417,0.13,-0.12,1.34,24.33,-37.66,-45.37,31.35
37427,0.21,-0.09,1.23,24.96,-30.34,-43.47,31.45
37437,0.29,-0.06,1.20,24.85,-21.31,-42.05,31.35
37447,0.34,-0.04,1.17,22.40,-4.15,-40.60,31.35
37457,0.35,-0.02,1.15,17.69,9.80,-41.29,31.35
37467,0.33,0.00,1.15,12.52,21.84,-39.10,31.35
37477,0.29,-0.01,1.16,6.90,26.37,-39.05,31.40
37487,0.25,-0.01,1.17,3.56,27.44,-41.32,31.31
37497,0.21,0.02,1.13,2.21,24.45,-41.91,31.40
37507,0.19,0.00,1.11,1.56,22.33,-37.19,31.40
37517,0.22,0.05,1.03,-0.49,21.76,-32.21,31.31
37527,0.26,-0.01,1.02,-5.55,28.54,-25.15,31.40
37537,0.27,-0.05,1.01,-9.56,28.21,-26.11,31.35
37547,0.30,-0.08,0.97,-12.89,29.79,-28.02,31.26
37557,0.29,-0.12,1.01,-17.11,25.96,-34.95,31.35
37567,0.29,-0.16,1.03,-20.47,24.43,-47.12,31.35
37577,0.24,-0.15,1.02,-19.08,19.40,-57.40,31.31
37587,0.18,-0.12,0.98,-13.49,17.55,-59.50,31.26
37597,0.17,-0.09,0.93,-9.27,18.34,-54.17,31.31
37607,0.17,-0.07,0.87,-11.15,22.99,-44.61,31.40
37617,0.17,-0.09,0.88,-18.35,24.41,-40.40,31.31
37627,0.16,-0.14,0.91,-25.66,15.98,-46.91,31.31
37637,0.06,-0.17,0.98,-32.52,-10.73,-65.56,31.31
37647,-0.02,-0.16,1.00,-39.24,-51.87,-91.53,31.31
37657,-0.11,-0.08,0.95,-49.20,-96.28,-113.45,31.26
37667,-0.16,-0.08,0.87,-55.44,-134.48,-127.66,31.35
37677,-0.18,0.02,0.73,-62.09,-153.47,-115.04,31.26
37687,-0.01,0.04,0.56,-55.60,-135.82,-69.66,31.35
37697,0.32,-0.05,0.38,-54.28,-68.44,-5.87,31.35
37707,0.57,-0.26,0.49,-48.62,10.94,51.11,31.40
37717,0.87,-0.56,0.66,-25.80,87.83,80.83,31.40
37727,0.90,-0.82,0.90,-19.24,125.63,73.80,31.40
37737,0.82,-0.94,1.25,-19.17,119.62,33.83,31.31
37747,0.59,-0.94,1.55,-20.13,71.12,-18.14,31.40
37757,0.31,-0.78,1.61,-7.24,-10.19,-69.54,31.31
37767,0.17,-0.53,1.39,-11.38,-55.46,-97.67,31.40
37777,-0.01,-0.30,1.17,-12.81,-88.86,-102.29,31.35
37787,-0.03,-0.05,0.86,-3.28,-71.27,-66.24,31.35
37797,0.02,0.14,0.64,7.95,-13.64,3.53,31.35
37807,0.17,-0.00,0.55,-1.11,57.15,78.94,31.45
37817,0.28,-0.36,0.82,-5.53,81.34,114.98,31.35
37827,0.42,-0.61,1.08,-18.33,83.74,110.98,31.40
37837,0.50,-0.85,1.32,-29.77,50.43,66.05,31.40
37847,0.49,-0.97,1.50,-33.57,-9.08,8.39,31.31
37857,0.42,-0.84,1.50,-25.19,-57.39,-40.60,31.31
37867,0.29,-0.67,1.35,-2.62,-80.78,-64.31,31.40
37877,0.17,-0.39,0.99,7.39,-59.44,-54.56,31.40
37887,0.07,-0.26,0.82,15.68,-21.63,-26.77,31.35
37897,0.03,-0.14,0.66,19.82,21.21,6.71,31.26
37907,0.01,-0.10,0.59,8.21,53.24,43.67,31.35
37917,0.03,-0.21,0.64,-10.69,66.52,62.69,31.35
37927,0.07,-0.38,0.79,-35.31,49.73,58.10,31.31
37937,0.17,-0.53,0.92,-51.86,10.31,36.53,31.26
37947,0.21,-0.64,0.99,-57.69,-33.82,8.73,31.40
37957,0.18,-0.67,1.04,-52.24,-71.05,-13.07,31.40
37967,0.16,-0.68,1.03,-38.21,-89.92,-20.49,31.21
37977,0.18,-0.67,0.93,-22.43,-81.50,-9.90,31.31
37987,0.24,-0.61,0.75,-6.17,-40.46,15.81,31.31
37997,0.31,-0.56,0.60,5.89,24.30,50.58,31.31
38007,0.33,-0.53,0.63,2.26,84.85,79.78,31.35
38017,0.31,-0.58,0.73,-10.08,107.58,88.14,31.35
38027,0.28,-0.69,0.87,-28.12,91.08,72.11,31.35
38037,0.23,-0.77,1.01,-40.63,42.65,43.05,31.17
38047,0.20,-0.81,1.08,-40.89,-8.86,15.99,31.17
38057,0.16,-0.80,1.05,-31.71,-42.08,4.04,31.31
38067,0.17,-0.77,0.96,-18.02,-39.11,14.65,31.31
38077,0.20,-0.73,0.83,-4.27,0.36,38.79,31.31
38087,0.17,-0.72,0.96,11.69,22.62,56.19,31.40
38097,0.19,-0.66,0.95,10.30,38.54,64.40,31.31
38107,0.21,-0.64,0.96,0.97,21.92,52.64,31.31
38117,0.22,-0.64,0.92,-10.23,-7.42,33.24,31.35
38127,0.23,-0.62,0.83,-16.15,-23.67,17.85,31.26
38137,0.24,-0.52,0.75,-22.89,-16.17,14.18,31.26
38147,0.23,-0.51,0.70,-15.79,-7.44,19.37,31.31
38157,0.20,-0.50,0.67,-12.16,6.40,30.75,31.35
38167,0.10,-0.55,0.70,-14.24,-10.17,34.60,31.31
38177,0.19,-0.49,0.57,-13.24,15.47,42.32,31.21
38187,-0.02,-0.52,0.74,-12.71,-7.79,47.42,31.40
38197,-0.01,-0.63,0.84,-19.44,-6.42,53.73,31.40
38207,0.04,-0.50,0.87,-21.57,9.33,62.37,31.40
38217,0.09,-0.53,0.98,-19.94,24.63,76.11,31.40
38227,0.23,-0.58,1.09,-21.24,29.82,80.79,31.35
38237,0.33,-0.64,1.22,-29.38,24.25,71.81,31.35
38247,0.44,-0.67,1.27,-38.76,2.27,55.70,31.26
38257,0.57,-0.66,1.21,-43.58,-17.47,41.11,31.26
38267,0.69,-0.72,1.19,-37.91,-22.87,25.69,31.26
38277,0.70,-0.79,1.19,-25.43,-6.56,10.81,31.31
38287,0.64,-0.82,1.20,-5.67,19.27,-2.83,31.21
38297,0.44,-0.80,1.23,2.82,35.38,-13.39,31.31
38307,0.23,-0.73,1.25,13.11,31.92,-20.08,31.40
38317,0.07,-0.70,1.20,24.28,13.40,-25.23,31.31
38327,-0.03,-0.60,1.05,29.66,-7.53,-29.14,31.21
38337,-0.07,-0.51,0.87,28.38,-24.90,-27.49,31.26
38347,-0.05,-0.45,0.74,24.08,-31.89,-22.45,31.45
38357,0.00,-0.37,0.63,15.57,-27.95,-16.21,31.35
38367,0.09,-0.33,0.56,8.46,-16.78,-7.79,31.35
38377,0.13,-0.41,0.59,-4.05,-0.40,-3.88,31.26
38387,0.10,-0.49,0.75,-12.79,1.56,-6.93,31.35
38397,-0.00,-0.57,0.91,-16.61,-10.29,-10.48,31.31
38407,-0.03,-0.61,0.92,-14.75,-23.54,-16.31,31.21
38417,-0.05,-0.57,0.99,-7.38,-39.09,-16.64,31.31
38427,0.03,-0.47,0.87,1.02,-31.92,-7.55,31.31
38437,0.19,-0.44,0.76,12.32,-8.79,2.26,31.40
38447,0.30,-0.45,0.68,10.38,26.15,9.42,31.31
38457,0.33,-0.51,0.70,5.08,50.35,9.27,31.35
38467,0.27,-0.58,0.78,0.30,56.85,0.08,31.35
38477,0.15,-0.59,0.83,-3.25,49.82,-9.80,31.35
38487,-0.02,-0.59,0.93,-7.44,26.39,-16.48,31.35
38497,-0.11,-0.49,0.93,-6.31,1.74,-16.74,31.31
38507,-0.13,-0.43,0.89,-7.96,-18.43,-7.95,31.26
38517,0.02,-0.43,0.83,1.33,-21.95,1.24,31.40
38527,0.18,-0.47,0.76,-4.49,-17.01,5.58,31.40
38537,0.30,-0.51,0.77,-12.15,-7.94,2.56,31.31
38547,0.31,-0.59,0.84,-18.60,0.90,-5.15,31.40
38557,0.22,-0.65,0.92,-15.08,5.24,-12.47,31.40
38567,0.09,-0.59,0.95,-8.59,5.76,-13.50,31.31
38577,0.00,-0.53,0.99,-4.31,-1.02,-7.97,31.35
38587,0.03,-0.51,0.99,-1.38,-6.60,-3.29,31.35
38597,0.06,-0.49,0.97,-4.06,-8.73,-0.44,31.35
38607,0.14,-0.51,0.95,-2.47,-7.56,2.16,31.45
38617,0.23,-0.53,0.92,-2.96,0.82,3.79,31.35
38627,0.28,-0.54,0.90,-4.16,9.96,3.75,31.21
38637,0.28,-0.60,0.92,-4.40,14.77,-0.95,31.35
38647,0.24,-0.61,0.92,-2.79,14.55,-9.50,31.40
38657,0.12,-0.54,0.93,-6.82,8.19,-14.60,31.40
38667,0.02,-0.51,0.99,-8.92,0.02,-13.01,31.31
38677,-0.01,-0.51,1.04,-9.17,-6.27,-6.63,31.31
38687,0.02,-0.54,1.02,-7.54,-10.05,-1.35,31.31
38697,0.11,-0.53,0.97,-5.99,-8.31,1.10,31.40
38707,0.18,-0.53,0.94,-6.49,-4.79,0.85,31.35
38717,0.21,-0.53,0.94,-7.42,2.96,2.21,31.45
38727,0.24,-0.55,0.98,-6.62,11.24,3.01,31.35
38737,0.24,-0.61,1.02,-4.92,13.37,-0.48,31.45
38747,0.17,-0.61,1.05,-2.71,7.46,-7.24,31.26
38757,0.10,-0.58,1.03,1.23,-2.27,-10.60,31.31
38767,0.07,-0.54,1.00,3.79,-7.47,-9.38,31.40
38777,0.07,-0.49,0.94,2.84,-7.76,-4.11,31.21
38787,0.12,-0.48,0.92,0.46,-2.53,1.61,31.31
38797,0.19,-0.49,0.92,-2.13,1.89,3.06,31.31
38807,0.25,-0.52,0.92,-3.23,6.58,1.44,31.31
38817,0.26,-0.55,0.96,-4.38,11.61,-2.31,31.40
38827,0.22,-0.56,1.00,-3.69,14.40,-4.40,31.26
38837,0.17,-0.56,1.01,-0.75,14.00,-4.99,31.35
38847,0.15,-0.54,0.99,1.48,13.16,-5.36,31.35
38857,0.15,-0.51,0.94,3.66,15.75,-3.70,31.26
38867,0.14,-0.47,0.96,2.08,11.20,-1.51,31.35
38877,0.19,-0.55,0.93,3.13,12.47,-1.38,31.35
38887,0.20,-0.53,0.93,2.79,3.57,-4.59,31.40
38897,0.19,-0.52,0.95,0.27,-0.10,-7.05,31.31
38907,0.20,-0.54,0.97,1.26,-5.65,-8.38,31.31
38917,0.17,-0.51,0.94,2.92,-0.98,-6.50,31.31
38927,0.18,-0.50,0.90,4.91,9.08,-3.50,31.40
38937,0.16,-0.50,0.87,5.27,21.42,1.34,31.40
38947,0.09,-0.53,0.91,2.14,30.79,5.15,31.31
38957,0.06,-0.51,0.93,2.85,34.19,7.84,31.35
38967,0.02,-0.49,0.95,4.19,24.94,6.67,31.35
38977,0.07,-0.58,0.90,9.48,18.05,2.27,31.45
38987,0.03,-0.51,0.85,2.19,3.45,-2.38,31.35
38997,0.08,-0.43,0.83,-6.01,-0.76,-6.46,31.35
39007,0.03,-0.42,0.80,-6.69,-4.13,-5.53,31.35
39017,0.04,-0.36,0.86,-9.33,-5.40,2.48,31.31
39027,0.13,-0.41,0.89,-10.56,-10.93,7.57,31.21
39037,0.20,-0.47,0.91,-14.03,-21.63,4.36,31.40
39047,0.27,-0.52,0.92,-19.15,-27.19,-1.85,31.40
39057,0.32,-0.56,0.95,-19.49,-24.39,-5.29,31.31
39067,0.37,-0.58,0.95,-14.55,-10.50,-4.82,31.40
39077,0.39,-0.59,0.96,-8.76,5.55,-5.62,31.40
39087,0.39,-0.62,0.99,-3.19,15.60,-10.09,31.26
39097,0.33,-0.59,1.01,-0.92,14.79,-16.63,31.35
39107,0.27,-0.60,1.00,2.36,9.02,-22.64,31.35
39117,0.25,-0.57,0.97,4.17,7.67,-25.74,31.35
39127,0.21,-0.54,0.96,4.10,8.03,-25.05,31.35
39137,0.22,-0.52,0.89,5.95,13.12,-20.39,31.35
39147,0.24,-0.55,0.88,5.45,16.63,-20.24,31.31
39157,0.25,-0.56,0.87,0.83,9.76,-25.02,31.40
39167,0.28,-0.57,0.83,-3.85,5.52,-30.80,31.31
39177,0.30,-0.58,0.81,-8.97,2.79,-34.82,31.49
39187,0.27,-0.61,0.84,-11.15,6.36,-37.26,31.40
39197,0.22,-0.63,0.88,-11.38,14.71,-35.50,31.40
39207,0.13,-0.63,0.91,-7.25,25.53,-27.62,31.35
39217,0.05,-0.61,0.95,-1.02,34.63,-17.77,31.35
39227,-0.02,-0.62,0.97,4.47,34.28,-10.69,31.35
39237,-0.04,-0.62,0.95,6.82,22.33,-10.88,31.45
39247,0.01,-0.62,0.91,6.00,-2.64,-20.17,31.35
39257,0.07,-0.64,0.93,-1.02,-34.43,-36.54,31.45
39267,0.12,-0.66,0.92,-7.25,-63.82,-52.97,31.40
39277,0.18,-0.63,0.83,-7.31,-69.90,-57.05,31.31
39287,0.25,-0.58,0.74,-2.84,-50.71,-49.34,31.40
39297,0.30,-0.55,0.70,2.21,-14.15,-34.61,31.31
39307,0.28,-0.53,0.71,3.47,22.31,-20.60,31.40
39317,0.20,-0.55,0.80,4.66,46.72,-10.01,31.31
39327,0.11,-0.57,0.92,8.50,46.92,-5.73,31.31
39337,0.05,-0.61,1.00,15.50,28.70,-9.59,31.45
39347,0.01,-0.65,1.03,16.48,3.88,-15.65,31.45
39357,0.06,-0.63,1.02,17.36,-19.51,-20.50,31.35
39367,0.11,-0.59,1.00,14.30,-34.53,-26.53,31.35
39377,0.15,-0.56,0.97,11.03,-43.18,-33.46,31.45
39387,0.21,-0.51,0.92,11.95,-49.02,-37.12,31.45
39397,0.30,-0.52,0.76,17.43,-33.88,-35.79,31.31
39407,0.33,-0.42,0.71,17.72,-7.53,-26.68,31.40
39417,0.32,-0.39,0.69,16.07,15.80,-19.10,31.31
39427,0.27,-0.39,0.76,10.56,34.96,-13.04,31.40
39437,0.18,-0.42,0.85,3.24,37.67,-11.56,31.40
39447,0.08,-0.44,0.96,-5.12,27.58,-11.63,31.40
39457,0.03,-0.44,1.03,-9.30,8.30,-11.57,31.35
39467,0.01,-0.46,1.06,-8.91,-8.74,-8.38,31.35
39477,0.02,-0.46,1.12,0.50,-27.31,-3.85,31.35
39487,0.12,-0.43,0.99,10.74,-23.10,2.75,31.45
39497,0.18,-0.43,0.93,16.69,-21.22,8.07,31.40
39507,0.24,-0.37,0.86,14.58,-18.15,11.64,31.35
39517,0.31,-0.32,0.80,8.16,-5.52,13.02,31.31
39527,0.32,-0.33,0.80,-1.27,-2.40,11.57,31.31
39537,0.29,-0.36,0.86,-9.69,2.18,9.40,31.40
39547,0.27,-0.41,0.93,-11.61,3.81,7.34,31.40
39557,0.22,-0.45,0.98,-9.95,-3.76,6.38,31.31
39567,0.20,-0.44,1.03,-6.56,-11.05,6.18,31.40
39577,0.21,-0.44,1.01,-5.77,-12.94,6.98,31.31
39587,0.21,-0.42,1.01,-5.09,-13.44,8.08,31.35
39597,0.23,-0.40,0.98,-5.73,-9.47,8.97,31.35
39607,0.22,-0.39,0.97,-4.85,-4.87,11.05,31.35
39617,0.22,-0.37,0.92,-2.55,-0.95,15.69,31.35
39627,0.20,-0.36,0.89,-1.36,0.60,21.02,31.31
39637,0.22,-0.36,0.86,-1.64,2.13,26.89,31.35
39647,0.27,-0.37,0.82,-1.21,-4.46,30.14,31.40
39657,0.30,-0.29,0.77,-13.02,-2.18,33.45,31.40
39667,0.33,-0.28,0.80,-26.86,3.80,33.56,31.40
39677,0.32,-0.30,0.85,-36.11,11.19,33.74,31.40
39687,0.29,-0.36,0.92,-40.06,17.84,31.88,31.40
39697,0.24,-0.40,1.00,-39.38,20.99,31.08,31.31
39707,0.18,-0.43,1.04,-31.49,16.24,31.87,31.35
39717,0.19,-0.44,1.07,-21.26,14.27,33.66,31.35
39727,0.21,-0.45,1.11,-11.63,13.07,33.31,31.45
39737,0.22,-0.45,1.08,-2.26,7.88,33.23,31.35
39747,0.22,-0.46,1.09,3.10,12.48,33.21,31.35
39757,0.25,-0.48,1.07,8.50,22.63,33.32,31.31
39767,0.24,-0.46,1.07,8.37,24.00,34.70,31.40
39777,0.24,-0.47,1.05,9.34,20.29,34.68,31.21
39787,0.27,-0.47,0.99,8.32,12.26,31.22,31.40
39797,0.32,-0.44,0.96,1.76,4.99,24.92,31.40
39807,0.35,-0.39,0.98,-8.68,-0.69,16.21,31.40
39817,0.31,-0.37,1.00,-16.39,-4.99,10.19,31.40
39827,0.28,-0.37,1.03,-16.09,-3.69,9.60,31.35
39837,0.23,-0.40,1.07,-11.47,1.73,12.19,31.35
39847,0.19,-0.42,1.09,-6.22,7.67,17.81,31.45
39857,0.18,-0.44,1.11,2.38,12.66,22.20,31.35
39867,0.18,-0.46,1.11,10.57,14.44,22.73,31.45
39877,0.19,-0.46,1.06,15.01,11.87,20.79,31.35
39887,0.20,-0.45,1.03,16.47,5.24,17.49,31.40
39897,0.21,-0.41,0.97,15.04,-2.48,15.04,31.31
39907,0.24,-0.38,0.93,12.52,-8.31,12.81,31.31
39917,0.28,-0.36,0.92,7.66,-10.92,9.47,31.49
39927,0.28,-0.35,0.89,2.79,-11.02,6.29,31.40
39937,0.26,-0.34,0.90,1.73,-8.23,8.77,31.40
39947,0.25,-0.35,0.92,3.12,-0.89,13.63,31.40
39957,0.24,-0.36,0.93,6.38,7.87,16.97,31.35
39967,0.21,-0.36,0.94,6.42,12.95,19.95,31.35
39977,0.18,-0.34,0.93,6.57,14.12,21.37,31.45
39987,0.21,-0.34,0.91,5.76,14.53,20.56,31.26
39997,0.24,-0.34,0.90,1.11,14.37,18.32,31.35
40007,0.22,-0.33,0.93,-5.90,12.04,16.47,31.45
40017,0.22,-0.37,0.97,-10.18,10.15,16.65,31.40
40027,0.19,-0.39,1.02,-11.11,8.61,16.72,31.49
40037,0.19,-0.42,1.06,-10.29,7.15,16.06,31.40
40047,0.19,-0.45,1.10,-7.21,5.69,13.79,31.40
40057,0.19,-0.44,1.07,-0.11,6.66,10.13,31.49
40067,0.20,-0.42,1.03,3.02,8.66,6.96,31.31
40077,0.19,-0.39,1.01,1.55,10.37,3.89,31.35
40087,0.18,-0.36,0.96,-2.13,12.05,3.83,31.26
40097,0.18,-0.33,0.96,-7.10,15.22,4.75,31.35
40107,0.18,-0.32,0.98,-14.65,15.79,4.24,31.45
40117,0.17,-0.33,1.01,-20.68,13.43,1.91,31.35
40127,0.13,-0.34,1.04,-23.27,7.02,0.14,31.45
40137,0.09,-0.36,1.09,-21.54,-0.85,1.69,31.49
40147,0.11,-0.38,1.12,-16.20,-6.21,3.95,31.40
40157,0.15,-0.38,1.09,-10.98,-7.56,3.69,31.40
40167,0.19,-0.39,1.04,-7.65,-5.98,2.05,31.40
40177,0.22,-0.37,1.01,-6.51,-1.42,0.86,31.40
40187,0.23,-0.40,1.00,-8.06,5.02,-0.01,31.31
40197,0.17,-0.36,1.02,-12.91,13.25,0.46,31.35
40207,0.21,-0.40,1.03,-12.02,18.42,-2.64,31.35
40217,0.17,-0.41,1.02,-11.14,20.83,-6.86,31.35
40227,0.12,-0.39,1.04,-12.76,16.88,-9.99,31.45
40237,0.12,-0.41,1.04,-10.09,14.61,-11.03,31.31
40247,0.06,-0.43,1.04,-8.85,14.18,-8.25,31.35
40257,0.07,-0.50,1.06,-1.33,6.63,-0.66,31.40
40267,0.04,-0.41,1.01,2.63,1.40,3.85,31.40
40277,0.09,-0.35,0.98,3.29,5.98,9.11,31.40
40287,0.12,-0.36,0.97,4.76,9.54,14.95,31.40
40297,0.12,-0.38,1.01,3.51,15.46,17.70,31.40
40307,0.13,-0.41,1.06,2.39,20.28,14.52,31.49
40317,0.11,-0.43,1.11,2.59,17.51,8.45,31.45
40327,0.07,-0.43,1.12,6.51,8.76,3.30,31.35
40337,0.09,-0.40,1.10,11.24,1.73,1.10,31.45
40347,0.10,-0.38,1.03,13.89,0.86,1.49,31.45
40357,0.06,-0.34,1.03,10.47,-4.31,5.44,31.35
40367,0.11,-0.34,0.95,9.19,-1.72,10.99,31.40
40377,0.11,-0.33,0.98,9.23,-10.92,13.65,31.40
40387,0.17,-0.32,0.93,3.56,-13.82,13.02,31.49
40397,0.19,-0.31,0.94,-2.11,-18.98,7.85,31.40
40407,0.21,-0.34,0.96,-4.86,-22.69,1.66,31.49
40417,0.22,-0.36,0.98,-5.87,-24.42,-3.53,31.31
40427,0.20,-0.35,0.99,-3.68,-23.31,-5.76,31.31
40437,0.20,-0.34,0.97,-0.73,-18.17,-4.57,31.45
40447,0.21,-0.34,0.95,2.50,-9.50,-1.70,31.26
40457,0.22,-0.34,0.94,2.53,-3.12,-1.42,31.35
40467,0.20,-0.33,0.96,0.19,-2.44,-3.37,31.26
40477,0.16,-0.33,0.98,-0.69,-6.85,-5.27,31.35
40487,0.14,-0.31,1.00,-2.34,-13.73,-6.86,31.35
40497,0.13,-0.32,1.01,-5.36,-19.49,-8.23,31.31
40507,0.13,-0.31,1.00,-4.79,-21.73,-7.60,31.49
40517,0.13,-0.31,0.97,-2.08,-17.95,-4.26,31.31
40527,0.14,-0.32,0.98,0.13,-10.50,-0.76,31.40
40537,0.15,-0.33,0.99,-0.95,-4.64,-0.70,31.31
40547,0.14,-0.35,1.02,-1.34,-3.98,-3.89,31.40
40557,0.12,-0.35,1.01,-1.25,-7.10,-8.10,31.31
40567,0.11,-0.34,1.00,-2.05,-13.45,-12.27,31.45
40577,0.18,-0.35,0.88,-2.46,-0.38,-13.37,31.35
40587,0.06,-0.34,0.98,-2.93,-13.62,-10.46,31.45
40597,0.06,-0.30,0.93,-2.31,-8.73,-2.23,31.35
40607,0.09,-0.30,0.94,-5.44,-1.31,4.43,31.35
40617,0.11,-0.35,0.98,-7.39,2.51,7.15,31.45
40627,0.11,-0.38,1.02,-8.31,2.81,7.61,31.49
40637,0.12,-0.41,1.04,-5.94,-1.44,7.14,31.40
40647,0.14,-0.43,1.05,-3.89,-5.24,5.32,31.31
40657,0.18,-0.43,1.01,-2.11,-6.98,3.44,31.40
40667,0.18,-0.40,0.98,-2.18,-3.09,4.18,31.40
40677,0.18,-0.40,0.96,-3.73,2.12,6.27,31.49
40687,0.18,-0.41,0.99,-6.18,5.65,7.06,31.40
40697,0.16,-0.42,1.01,-7.75,4.85,6.89,31.40
40707,0.17,-0.44,1.03,-8.05,2.73,6.18,31.35
40717,0.19,-0.45,1.04,-7.05,0.39,5.63,31.35
40727,0.20,-0.46,1.03,-4.80,-0.39,5.69,31.45
40737,0.22,-0.46,1.04,-2.79,0.54,4.31,31.35
40747,0.22,-0.46,1.02,-0.52,-1.13,1.15,31.45
40757,0.23,-0.44,1.01,0.99,-3.24,-2.31,31.40
40767,0.23,-0.43,0.97,0.86,-4.98,-4.60,31.40
40777,0.24,-0.42,0.96,-1.07,-5.19,-5.80,31.40
40787,0.24,-0.42,0.96,-2.70,-4.68,-7.11,31.40
40797,0.23,-0.42,0.96,-3.21,-3.14,-8.75,31.40
40807,0.23,-0.42,0.96,-2.98,-1.51,-9.89,31.40
40817,0.21,-0.42,0.95,-2.92,-1.31,-10.42,31.31
40827,0.18,-0.41,0.96,-2.89,-1.63,-9.70,31.35
40837,0.16,-0.40,0.97,-1.94,-2.14,-8.05,31.45
40847,0.15,-0.39,0.96,-1.69,-2.05,-5.78,31.35
40857,0.16,-0.39,0.95,-1.05,-1.63,-4.09,31.35
40867,0.17,-0.39,0.95,-1.24,0.31,-2.24,31.45
40877,0.18,-0.41,0.94,-1.85,3.05,0.80,31.45
40887,0.20,-0.42,0.95,-2.90,5.41,1.40,31.40
40897,0.21,-0.45,0.98,-4.20,6.13,0.32,31.40
40907,0.21,-0.45,0.98,-4.47,3.05,-2.76,31.31
40917,0.21,-0.45,1.01,-4.41,-1.22,-7.12,31.40
40927,0.20,-0.45,1.00,-3.53,-3.63,-9.50,31.31
40937,0.20,-0.43,0.98,-2.85,-4.58,-9.88,31.49
40947,0.20,-0.42,0.96,-2.20,-0.18,-7.30,31.40
40957,0.20,-0.42,0.97,-1.68,5.22,-4.82,31.45
40967,0.18,-0.43,1.00,-0.92,7.24,-4.31,31.35
40977,0.18,-0.40,0.95,-1.72,5.20,-4.45,31.35
40987,0.16,-0.41,0.98,-1.47,3.11,-6.48,31.35
40997,0.16,-0.40,0.96,-2.02,-0.45,-7.42,31.35
41007,0.16,-0.39,0.94,-2.40,-1.21,-6.75,31.35
41017,0.16,-0.37,0.92,-3.54,1.04,-4.16,31.31
41027,0.17,-0.39,0.94,-5.53,4.48,-2.47,31.49
41037,0.17,-0.40,0.95,-6.97,6.10,-1.90,31.40
41047,0.15,-0.42,0.97,-6.85,4.34,-2.15,31.31
41057,0.16,-0.43,0.98,-5.99,2.34,-2.92,31.31
41067,0.15,-0.42,0.99,-3.94,-0.04,-3.70,31.31
41077,0.16,-0.42,0.97,-2.64,-0.90,-2.88,31.40
41087,0.16,-0.40,0.95,-2.43,0.57,0.21,31.35
41097,0.18,-0.40,0.96,-1.98,4.01,3.11,31.45
41107,0.20,-0.40,0.96,-2.87,6.49,4.93,31.35
41117,0.20,-0.40,0.96,-5.18,6.62,4.69,31.35
41127,0.21,-0.42,0.98,-7.37,3.40,2.78,31.45
41137,0.21,-0.45,1.01,-7.08,-0.11,0.59,31.45
41147,0.22,-0.46,1.00,-5.36,-0.79,-1.39,31.49
41157,0.22,-0.45,1.00,-2.21,0.24,-2.19,31.31
41167,0.22,-0.44,0.99,-0.60,1.88,-1.92,31.40
41177,0.21,-0.44,0.98,-1.15,2.69,-2.19,31.49
41187,0.20,-0.42,0.97,-2.96,1.55,-3.35,31.40
41197,0.19,-0.43,0.97,-3.76,0.18,-3.24,31.31
41207,0.19,-0.43,0.97,-3.85,0.05,-2.85,31.49
41217,0.20,-0.43,0.96,-3.91,1.40,-2.02,31.35
41227,0.19,-0.43,0.97,-3.63,2.44,-1.50,31.35
41237,0.19,-0.43,0.96,-3.38,2.89,-1.45,31.45
41247,0.17,-0.42,0.96,-4.49,2.75,-1.78,31.35
41257,0.16,-0.42,0.96,-6.17,0.63,-2.43,31.35
41267,0.16,-0.42,0.96,-6.96,-0.24,-1.80,31.35
41277,0.16,-0.43,0.97,-6.03,0.26,-0.81,31.40
41287,0.16,-0.43,0.97,-4.47,0.39,-0.88,31.31
41297,0.17,-0.41,0.96,-4.04,1.09,-0.79,31.40
41307,0.16,-0.40,0.96,-3.71,1.31,-0.35,31.31
41317,0.15,-0.41,0.95,-4.51,1.64,1.37,31.31
41327,0.16,-0.40,0.96,-5.35,1.60,1.89,31.40
41337,0.17,-0.43,0.97,-5.81,1.62,1.99,31.40
41347,0.17,-0.42,0.96,-5.90,0.03,1.73,31.45
41357,0.18,-0.41,0.96,-6.22,-1.76,1.27,31.45
41367,0.17,-0.41,0.97,-6.73,-1.42,1.76,31.45
41377,0.17,-0.41,0.96,-6.40,-0.67,3.08,31.45
41387,0.19,-0.41,0.95,-5.45,0.90,3.88,31.35
41397,0.18,-0.42,0.96,-4.90,2.24,3.98,31.45
41407,0.18,-0.41,0.96,-5.59,1.08,3.57,31.40
41417,0.19,-0.42,0.95,-6.83,-0.03,3.56,31.31
41427,0.20,-0.43,0.96,-8.69,-0.97,3.60,31.40
41437,0.20,-0.45,0.99,-9.27,-0.92,4.18,31.31
41447,0.22,-0.46,1.00,-8.03,0.58,3.82,31.40
41457,0.21,-0.46,1.02,-6.25,0.90,3.61,31.31
41467,0.21,-0.46,1.01,-4.31,0.58,3.02,31.40
41477,0.21,-0.45,1.01,-2.18,0.18,2.08,31.31
41487,0.19,-0.44,1.00,-1.73,-0.29,1.08,31.35
41497,0.18,-0.42,0.97,-1.82,-1.55,0.72,31.35
41507,0.18,-0.41,0.97,-2.82,-1.90,-0.03,31.35
41517,0.17,-0.40,0.96,-3.72,-2.47,-0.22,31.45
41527,0.17,-0.40,0.96,-4.94,-2.77,-0.05,31.45
41537,0.17,-0.40,0.98,-5.02,-2.41,0.69,31.40
41547,0.16,-0.41,0.98,-4.02,-1.19,2.24,31.35
41557,0.17,-0.41,0.98,-2.97,-0.37,3.49,31.40
41567,0.19,-0.43,0.97,-2.40,0.84,4.03,31.40
41577,0.19,-0.43,0.98,-2.89,0.42,3.30,31.40
41587,0.20,-0.42,0.98,-2.87,-1.66,1.99,31.40
41597,0.20,-0.43,0.99,-2.44,-3.13,0.53,31.49
41607,0.20,-0.42,0.98,-1.94,-5.18,0.02,31.40
41617,0.20,-0.41,0.96,-2.09,-4.53,0.95,31.40
41627,0.20,-0.41,0.95,-3.25,-3.60,1.86,31.35
41637,0.21,-0.42,0.95,-4.24,-1.60,3.53,31.35
41647,0.22,-0.44,0.98,-4.66,-0.45,3.77,31.45
41657,0.22,-0.44,0.99,-4.09,-1.53,1.96,31.45
41667,0.23,-0.45,0.98,-3.50,-3.98,-0.15,31.40
41677,0.22,-0.44,0.97,-2.56,-6.44,-1.82,31.35
41687,0.22,-0.43,0.95,-2.35,-6.27,-2.10,31.35
41697,0.22,-0.40,0.94,-2.92,-5.93,-1.76,31.40
41707,0.20,-0.40,0.94,-4.88,-5.34,-0.92,31.40
41717,0.21,-0.40,0.94,-6.15,-5.70,-0.97,31.40
41727,0.21,-0.42,0.95,-6.35,-5.50,-1.50,31.40
41737,0.22,-0.42,0.96,-5.56,-4.82,-1.04,31.40
41747,0.22,-0.42,0.96,-5.24,-4.35,-0.72,31.40
41757,0.22,-0.42,0.96,-5.46,-3.40,-0.64,31.40
41767,0.21,-0.43,0.97,-5.98,-4.15,-1.45,31.45
41777,0.21,-0.42,0.98,-6.08,-6.24,-2.49,31.45
41787,0.20,-0.42,0.97,-6.26,-8.61,-3.52,31.45
41797,0.21,-0.42,0.96,-6.18,-8.83,-3.62,31.45
41807,0.23,-0.42,0.96,-6.27,-7.66,-3.30,31.45
41817,0.23,-0.42,0.95,-5.92,-4.84,-2.45,31.45
41827,0.23,-0.43,0.95,-5.30,-2.12,-1.19,31.35
41837,0.23,-0.42,0.97,-5.13,0.95,0.58,31.40
41847,0.23,-0.42,0.97,-4.93,3.05,1.46,31.40
41857,0.23,-0.42,0.99,-4.73,3.17,1.47,31.40
41867,0.22,-0.43,0.99,-4.34,1.18,0.24,31.40
41877,0.23,-0.44,0.99,-4.12,-1.14,-1.56,31.49
41887,0.22,-0.43,0.99,-3.95,-2.69,-2.52,31.40
41897,0.23,-0.42,0.99,-3.96,-2.84,-2.11,31.40
41907,0.22,-0.41,0.98,-4.20,-2.02,-1.09,31.35
41917,0.22,-0.41,0.97,-4.81,-0.15,-0.58,31.35
41927,0.23,-0.42,0.97,-4.56,1.96,0.07,31.45
41937,0.23,-0.43,0.98,-4.20,2.84,0.69,31.45
41947,0.22,-0.43,0.98,-3.43,3.52,0.24,31.45
41957,0.23,-0.44,0.99,-2.98,3.60,0.18,31.45
41967,0.23,-0.44,0.97,-2.15,3.24,0.05,31.40
41977,0.23,-0.44,0.99,-1.21,2.78,-0.08,31.40
41987,0.23,-0.43,0.97,-0.94,2.89,-0.27,31.40
41997,0.23,-0.43,0.96,-1.37,2.95,0.39,31.40
42007,0.23,-0.43,0.96,-1.77,3.09,0.53,31.40
42017,0.23,-0.43,0.97,-2.23,2.49,0.21,31.40
42027,0.22,-0.44,0.97,-2.43,1.03,-0.69,31.40
42037,0.22,-0.44,0.96,-1.89,-0.53,-1.08,31.40
42047,0.22,-0.44,0.95,-0.65,-0.73,-0.50,31.35
42057,0.23,-0.44,0.94,-0.92,0.40,0.50,31.45
42067,0.24,-0.44,0.95,-1.20,1.74,1.05,31.45
42077,0.23,-0.42,0.94,-2.31,1.10,1.79,31.35
42087,0.22,-0.42,0.97,-2.01,2.05,0.82,31.35
42097,0.24,-0.43,0.94,-1.46,2.76,1.21,31.49
42107,0.22,-0.44,0.95,-2.17,1.35,0.21,31.35
42117,0.21,-0.43,0.93,-2.60,-1.49,0.55,31.49
42127,0.22,-0.43,0.94,-3.87,-0.54,1.21,31.40
42137,0.22,-0.43,0.94,-3.89,-0.27,2.25,31.40
42147,0.22,-0.44,0.94,-3.92,1.57,3.02,31.40
42157,0.23,-0.45,0.96,-3.44,2.01,3.16,31.40
42167,0.23,-0.44,0.95,-3.37,1.63,3.09,31.40
42177,0.23,-0.44,0.95,-3.23,0.05,2.76,31.40
42187,0.22,-0.43,0.95,-2.77,-0.10,2.69,31.45
42197,0.23,-0.43,0.96,-2.31,0.49,3.37,31.45
42207,0.23,-0.43,0.96,-2.24,0.93,3.69,31.35
42217,0.23,-0.43,0.96,-2.31,-0.15,4.02,31.45
42227,0.22,-0.43,0.96,-2.93,-1.30,4.15,31.35
42237,0.23,-0.44,0.97,-3.75,-1.82,4.08,31.45
42247,0.24,-0.44,0.96,-4.18,-1.65,4.08,31.45
42257,0.25,-0.44,0.96,-3.26,-0.90,3.64,31.35
42267,0.23,-0.44,0.96,-1.95,-0.57,3.14,31.31
42277,0.23,-0.43,0.96,-1.15,-0.97,2.85,31.49
42287,0.22,-0.43,0.96,-1.02,-1.50,2.39,31.40
42297,0.21,-0.42,0.96,-1.69,-2.46,2.44,31.31
42307,0.20,-0.40,0.95,-2.75,-3.31,3.20,31.40
42317,0.21,-0.41,0.95,-3.53,-2.98,4.33,31.40
