Timestamp,Acce_X,Acce_Y,Acce_Z,Gyro_X,Gyro_Y,Gyro_Z,Temp
49147,0.08,-0.04,1.05,-7.85,9.79,-7.79,31.17
49157,0.10,-0.03,1.07,-6.97,7.33,-11.51,31.21
49167,0.12,-0.01,1.06,-5.00,6.23,-17.09,31.21
49177,0.10,-0.02,1.09,-1.50,3.52,-23.24,31.21
49187,0.09,-0.01,1.08,1.85,0.63,-30.40,31.31
49197,0.08,0.00,1.05,2.08,7.80,-36.66,31.21
49207,0.05,0.01,1.06,2.15,9.31,-42.15,31.21
49217,0.02,0.01,1.05,3.06,13.82,-46.49,31.17
49227,-0.02,0.02,1.05,4.64,16.85,-49.62,31.35
49237,-0.07,0.04,1.06,5.73,14.56,-51.91,31.26
49247,-0.10,0.05,1.04,6.53,10.56,-53.56,31.26
49257,-0.11,0.08,1.02,6.49,6.53,-54.57,31.12
49267,-0.10,0.09,0.97,4.35,6.15,-57.02,31.31
49277,-0.11,0.09,0.95,-0.92,4.83,-61.95,31.21
49287,-0.11,0.10,0.93,-9.48,0.95,-68.24,31.21
49297,-0.14,0.09,0.96,-18.29,-6.95,-74.42,31.21
49307,-0.16,0.08,0.99,-26.56,-19.95,-80.92,31.21
49317,-0.20,0.09,1.00,-35.24,-36.25,-85.62,31.21
49327,-0.21,0.09,1.02,-42.22,-44.69,-85.60,31.26
49337,-0.23,0.08,1.01,-50.77,-40.08,-77.27,31.26
49347,-0.19,0.10,1.06,-47.88,-32.34,-63.08,31.26
49357,-0.15,0.09,1.06,-40.27,-17.80,-48.07,31.26
49367,-0.12,0.09,1.09,-30.86,-3.69,-34.53,31.26
49377,-0.07,0.08,1.12,-25.44,1.53,-25.26,31.17
49387,-0.07,0.06,1.16,-20.65,-1.10,-20.56,31.31
49397,-0.03,0.05,1.16,-18.30,-8.12,-18.59,31.21
49407,0.01,0.04,1.16,-17.90,-14.36,-19.47,31.21
49417,0.03,0.02,1.17,-15.57,-16.43,-19.93,31.21
49427,0.03,0.02,1.18,-11.90,-14.66,-16.20,31.31
49437,0.06,0.03,1.14,-4.23,0.88,-9.88,31.31
49447,0.07,0.01,1.13,-0.72,13.15,-3.72,31.17
49457,0.05,0.00,1.13,4.78,25.00,7.02,31.17
49467,0.06,-0.01,1.12,9.34,34.41,18.21,31.26
49477,0.08,-0.02,1.09,12.05,44.65,25.85,31.17
49487,0.11,-0.02,1.10,13.26,52.67,29.10,31.17
49497,0.10,-0.04,1.12,14.53,55.38,28.33,31.26
49507,0.08,-0.04,1.15,17.33,53.93,25.56,31.21
49517,0.05,-0.04,1.14,20.93,47.28,22.31,31.21
49527,0.03,-0.04,1.10,24.35,38.24,17.66,31.21
49537,0.03,-0.03,1.05,24.05,33.00,12.01,31.21
49547,-0.01,-0.01,1.02,20.34,22.88,6.63,31.21
49557,-0.04,-0.01,1.01,15.44,8.89,2.33,31.21
49567,-0.06,-0.02,0.98,11.08,-4.20,-2.44,31.26
49577,-0.09,-0.04,0.96,7.53,-14.76,-5.54,31.17
49587,-0.12,-0.06,0.94,2.33,-19.11,-8.40,31.26
49597,-0.16,-0.08,0.93,-4.08,-21.05,-9.08,31.26
49607,-0.18,-0.09,0.95,-8.37,-22.49,-4.93,31.21
49617,-0.20,-0.11,0.95,-13.05,-21.51,4.05,31.17
49627,-0.23,-0.13,0.95,-16.18,-15.06,16.70,31.21
49637,-0.21,-0.14,0.99,-14.70,4.08,31.98,31.21
49647,-0.16,-0.17,1.00,-4.07,33.13,45.44,31.31
49657,-0.16,-0.20,1.06,5.76,54.35,56.05,31.21
49667,-0.12,-0.22,1.06,14.66,69.07,62.54,31.31
49677,-0.09,-0.25,1.05,22.46,84.60,67.02,31.21
49687,-0.04,-0.27,1.04,26.07,95.85,65.79,31.17
49697,-0.05,-0.29,1.07,27.40,94.85,61.82,31.17
49707,-0.03,-0.29,1.02,25.49,84.96,55.29,31.26
49717,0.01,-0.26,0.94,19.21,76.43,48.09,31.17
49727,0.02,-0.27,0.93,16.02,74.98,39.55,31.17
49737,0.01,-0.28,0.90,11.51,79.34,29.20,31.21
49747,-0.05,-0.29,0.89,4.31,88.73,20.85,31.21
49757,-0.15,-0.30,0.99,-1.03,78.11,15.92,31.21
49767,-0.23,-0.32,1.04,-2.53,50.97,13.91,31.31
49777,-0.24,-0.33,1.03,-4.48,33.00,15.92,31.31
49787,-0.19,-0.33,1.01,-9.18,27.52,19.95,31.21
49797,-0.11,-0.33,0.97,-15.19,42.37,22.01,31.21
49807,-0.01,-0.34,0.96,-18.82,80.01,21.85,31.26
49817,-0.02,-0.37,0.97,-19.73,108.79,18.16,31.26
49827,-0.09,-0.42,1.05,-24.47,116.60,11.95,31.26
49837,-0.16,-0.40,1.13,-34.87,93.49,2.01,31.26
49847,-0.24,-0.41,1.17,-45.48,57.71,-6.59,31.26
49857,-0.31,-0.41,1.23,-51.52,13.56,-9.25,31.26
49867,-0.31,-0.40,1.20,-49.81,-20.52,-3.95,31.21
49877,-0.24,-0.43,1.12,-46.53,-20.73,2.74,31.21
49887,-0.21,-0.43,1.11,-44.13,6.79,8.04,31.31
49897,-0.26,-0.42,1.16,-43.30,30.80,13.80,31.31
49907,-0.33,-0.43,1.26,-43.28,40.92,20.48,31.21
49917,-0.39,-0.40,1.31,-38.66,31.60,26.24,31.21
49927,-0.39,-0.41,1.31,-28.99,16.15,31.22,31.26
49937,-0.36,-0.44,1.30,-17.46,-1.28,33.89,31.17
49947,-0.32,-0.42,1.23,-13.18,-14.53,32.37,31.17
49957,-0.29,-0.41,1.21,-13.01,-20.69,32.01,31.26
49967,-0.27,-0.40,1.20,-12.90,-20.38,30.17,31.26
49977,-0.30,-0.41,1.21,-8.85,-19.90,30.13,31.26
49987,-0.31,-0.41,1.16,-2.03,-22.84,31.73,31.31
49997,-0.32,-0.38,1.13,2.56,-22.44,33.32,31.21
50007,-0.31,-0.35,1.09,4.33,-23.31,35.63,31.12
50017,-0.24,-0.34,1.06,4.38,-18.76,35.35,31.21
50027,-0.23,-0.33,1.07,1.21,-17.23,30.62,31.21
50037,-0.28,-0.35,1.13,-1.42,-25.62,24.80,31.21
50047,-0.35,-0.34,1.16,0.08,-41.76,19.87,31.26
50057,-0.42,-0.32,1.15,7.65,-58.48,18.42,31.17
50067,-0.44,-0.28,1.06,16.26,-60.34,24.25,31.26
50077,-0.35,-0.26,0.94,19.16,-42.53,32.29,31.17
50087,-0.28,-0.26,0.95,15.29,-24.47,36.88,31.21
50097,-0.22,-0.26,1.02,3.42,-22.15,35.37,31.35
50107,-0.18,-0.28,1.08,-5.64,-36.63,28.80,31.21
50117,-0.15,-0.28,1.11,-7.64,-56.79,22.53,31.31
50127,-0.11,-0.27,1.09,-4.34,-66.15,17.62,31.31
50137,-0.04,-0.27,1.07,-0.44,-56.27,10.98,31.21
50147,-0.05,-0.27,1.09,3.05,-38.11,5.89,31.12
50157,-0.12,-0.24,1.15,7.02,-19.82,2.34,31.17
50167,-0.21,-0.24,1.15,14.14,-7.27,2.39,31.17
50177,-0.27,-0.24,1.13,20.52,-3.65,3.11,31.26
50187,-0.32,-0.22,1.06,27.92,-7.79,5.31,31.17
50197,-0.33,-0.20,0.99,31.20,-16.51,7.97,31.26
50207,-0.32,-0.14,0.89,28.30,-21.93,11.71,31.17
50217,-0.26,-0.12,0.81,23.38,-22.51,16.47,31.21
50227,-0.16,-0.13,0.76,14.97,-17.81,17.42,31.21
50237,-0.13,-0.15,0.79,4.75,-14.74,13.29,31.31
50247,-0.15,-0.14,0.81,-2.68,-17.33,10.40,31.21
50257,-0.19,-0.14,0.85,-6.11,-15.95,11.95,31.21
50267,-0.17,-0.15,0.89,-7.35,-9.37,14.79,31.21
50277,-0.14,-0.18,0.95,-7.92,-2.79,14.57,31.26
50287,-0.15,-0.19,1.02,-5.43,-1.79,11.44,31.26
50297,-0.17,-0.19,1.02,2.08,-6.49,11.07,31.26
50307,-0.16,-0.16,0.95,7.23,-7.27,11.13,31.21
50317,-0.14,-0.14,0.88,9.02,-1.34,11.38,31.17
50327,-0.13,-0.14,0.85,3.71,6.35,12.15,31.31
50337,-0.13,-0.13,0.90,-4.85,12.18,9.74,31.21
50347,-0.17,-0.16,0.97,-8.82,5.98,8.79,31.21
50357,-0.16,-0.17,0.97,-6.51,-2.76,8.73,31.21
50367,-0.12,-0.17,0.96,-2.92,-8.25,6.66,31.31
50377,-0.11,-0.15,0.95,1.76,-10.81,3.85,31.21
50387,-0.11,-0.13,0.88,2.68,-7.20,2.69,31.17
50397,-0.13,-0.12,0.88,0.43,-2.86,2.58,31.17
50407,-0.14,-0.12,0.88,-3.85,0.86,4.34,31.17
50417,-0.13,-0.15,0.87,-8.17,7.08,7.07,31.26
50427,-0.10,-0.16,0.93,-12.67,11.08,6.28,31.26
50437,-0.10,-0.17,0.98,-13.53,7.82,3.76,31.21
50447,-0.11,-0.16,1.00,-10.36,0.37,-0.98,31.21
50457,-0.15,-0.15,0.97,-6.79,-6.40,-2.23,31.21
50467,-0.15,-0.15,0.93,-4.98,-4.20,-0.46,31.31
50477,-0.13,-0.14,0.90,-7.53,5.35,-0.02,31.21
50487,-0.14,-0.15,0.93,-12.66,15.95,1.56,31.21
50497,-0.13,-0.18,0.97,-15.49,17.71,2.96,31.17
50507,-0.10,-0.20,1.01,-16.18,13.15,1.63,31.17
50517,-0.09,-0.23,1.04,-13.21,5.58,-2.38,31.17
50527,-0.09,-0.23,1.04,-10.22,-2.37,-6.66,31.31
50537,-0.10,-0.22,1.03,-6.51,-9.32,-11.62,31.17
50547,-0.15,-0.19,0.98,-2.50,-13.25,-14.22,31.31
50557,-0.18,-0.17,0.91,-1.92,-13.98,-12.27,31.21
50567,-0.17,-0.17,0.85,-7.06,-1.95,-9.76,31.21
50577,-0.17,-0.17,0.86,-13.89,4.92,-7.55,31.21
50587,-0.17,-0.21,0.91,-18.73,13.90,-4.87,31.12
50597,-0.15,-0.22,0.94,-20.14,15.11,-3.26,31.12
50607,-0.10,-0.25,0.99,-20.56,13.90,-5.98,31.26
50617,-0.11,-0.28,1.04,-20.33,5.11,-11.12,31.17
50627,-0.14,-0.28,1.05,-19.73,-5.69,-14.23,31.26
50637,-0.14,-0.27,1.04,-17.05,-8.89,-13.95,31.17
50647,-0.13,-0.29,1.01,-16.40,-0.27,-12.11,31.26
50657,-0.10,-0.30,1.01,-17.98,17.92,-9.40,31.21
50667,-0.16,-0.32,1.07,-21.53,30.65,-7.31,31.21
50677,-0.17,-0.31,1.13,-22.73,34.83,-5.88,31.21
50687,-0.17,-0.29,1.16,-21.61,24.81,-6.11,31.21
50697,-0.15,-0.26,1.11,-17.37,12.43,-6.27,31.31
50707,-0.15,-0.28,1.08,-11.99,8.97,-7.36,31.21
50717,-0.16,-0.28,1.09,-15.69,8.75,-7.30,31.17
50727,-0.18,-0.32,1.10,-19.36,9.36,-6.62,31.17
50737,-0.15,-0.31,1.10,-22.28,15.57,-5.34,31.26
50747,-0.15,-0.28,1.13,-23.10,14.44,-5.87,31.21
50757,-0.15,-0.29,1.15,-18.74,12.20,-8.34,31.17
50767,-0.14,-0.30,1.16,-15.11,3.02,-13.21,31.26
50777,-0.15,-0.29,1.12,-9.69,-8.37,-18.76,31.31
50787,-0.13,-0.26,1.07,-7.39,-13.46,-23.66,31.21
50797,-0.15,-0.27,1.04,-9.10,-11.44,-26.35,31.21
50807,-0.20,-0.28,1.06,-11.11,-2.28,-27.27,31.21
50817,-0.23,-0.25,1.13,-12.36,9.40,-25.08,31.21
50827,-0.24,-0.27,1.16,-5.60,13.57,-21.51,31.26
50837,-0.23,-0.30,1.14,3.32,14.62,-19.97,31.26
50847,-0.21,-0.28,1.11,11.57,7.44,-19.45,31.35
50857,-0.16,-0.28,1.05,16.66,-1.80,-20.85,31.17
50867,-0.12,-0.22,0.97,15.68,-7.28,-24.14,31.26
50877,-0.06,-0.18,0.89,13.65,-4.34,-25.82,31.21
50887,-0.02,-0.19,0.85,6.89,11.11,-29.22,31.21
50897,-0.06,-0.22,0.90,-1.58,28.76,-32.24,31.21
50907,-0.12,-0.25,1.00,-8.05,31.76,-35.77,31.31
50917,-0.23,-0.29,1.14,-10.37,17.49,-38.92,31.21
50927,-0.29,-0.25,1.20,-5.86,-9.24,-40.52,31.21
50937,-0.27,-0.24,1.18,5.35,-35.42,-38.68,31.21
50947,-0.16,-0.24,1.05,15.69,-42.60,-36.91,31.26
50957,-0.04,-0.21,0.91,16.48,-27.23,-37.46,31.17
50967,0.03,-0.21,0.87,11.89,-6.59,-41.18,31.26
50977,0.03,-0.22,0.86,-0.94,12.74,-47.24,31.26
50987,-0.02,-0.23,0.93,-12.92,21.83,-53.40,31.26
50997,-0.10,-0.25,1.02,-17.98,18.34,-56.53,31.17
51007,-0.15,-0.25,1.07,-15.25,9.46,-57.52,31.31
51017,-0.16,-0.26,1.06,-8.87,4.26,-59.14,31.12
51027,-0.15,-0.24,1.02,-6.08,7.11,-60.32,31.31
51037,-0.15,-0.22,1.01,-2.99,19.06,-59.08,31.21
51047,-0.18,-0.22,0.96,-1.04,37.02,-56.15,31.31
51057,-0.21,-0.23,0.96,-0.85,60.34,-51.44,31.26
51067,-0.29,-0.25,0.99,-1.33,78.73,-46.04,31.26
51077,-0.33,-0.25,1.03,0.24,86.36,-40.92,31.26
51087,-0.36,-0.26,1.05,3.40,82.31,-37.40,31.17
51097,-0.39,-0.26,1.05,5.30,67.86,-35.03,31.21
51107,-0.39,-0.23,1.06,4.69,48.99,-33.18,31.26
51117,-0.36,-0.22,1.07,4.47,31.36,-32.04,31.21
51127,-0.30,-0.22,1.07,5.78,20.57,-31.73,31.31
51137,-0.27,-0.22,1.06,7.34,15.14,-30.69,31.21
51147,-0.24,-0.24,1.04,9.27,16.56,-29.10,31.31
51157,-0.21,-0.27,1.02,10.44,21.21,-28.21,31.31
51167,-0.20,-0.30,1.01,8.08,26.95,-28.07,31.21
51177,-0.24,-0.31,1.06,4.59,28.83,-27.52,31.26
51187,-0.27,-0.31,1.11,4.18,25.20,-25.70,31.35
51197,-0.29,-0.28,1.13,5.95,16.82,-22.15,31.26
51207,-0.26,-0.26,1.12,9.98,10.64,-18.92,31.17
51217,-0.20,-0.27,1.08,13.70,9.53,-18.89,31.26
51227,-0.17,-0.28,1.05,14.60,12.69,-20.44,31.31
51237,-0.18,-0.31,1.05,13.81,16.56,-21.98,31.31
51247,-0.21,-0.33,1.05,13.90,17.71,-21.72,31.21
51257,-0.22,-0.34,1.06,14.49,15.94,-20.40,31.21
51267,-0.21,-0.33,1.07,14.36,14.24,-19.44,31.21
51277,-0.22,-0.29,1.08,14.05,9.05,-18.85,31.21
51287,-0.20,-0.29,1.09,15.47,4.09,-20.11,31.31
51297,-0.19,-0.28,1.07,17.53,-0.16,-22.58,31.17
51307,-0.21,-0.28,1.06,17.25,-4.08,-25.20,31.26
51317,-0.23,-0.29,1.06,17.02,-6.11,-26.41,31.17
51327,-0.25,-0.29,1.06,17.18,-8.79,-26.15,31.26
51337,-0.27,-0.27,1.04,16.21,-8.79,-24.49,31.26
51347,-0.26,-0.27,1.02,16.25,-4.94,-21.39,31.21
51357,-0.23,-0.23,1.01,15.83,1.89,-17.47,31.31
51367,-0.21,-0.22,1.00,15.69,9.33,-16.62,31.31
51377,-0.20,-0.21,1.00,17.74,13.66,-17.79,31.21
51387,-0.21,-0.20,0.99,18.96,11.21,-20.63,31.31
51397,-0.23,-0.19,0.99,18.21,5.45,-24.35,31.21
51407,-0.25,-0.19,1.00,18.60,-2.63,-26.95,31.21
51417,-0.28,-0.18,0.98,19.15,-13.73,-28.47,31.17
51427,-0.29,-0.16,0.96,18.95,-20.17,-27.28,31.17
51437,-0.27,-0.12,0.92,17.63,-20.13,-24.65,31.26
51447,-0.24,-0.10,0.89,15.60,-10.39,-22.49,31.26
51457,-0.25,-0.10,0.88,12.40,1.11,-17.89,31.17
51467,-0.26,-0.09,0.87,9.23,12.28,-12.99,31.26
51477,-0.27,-0.08,0.92,5.60,20.04,-9.16,31.31
51487,-0.31,-0.09,0.96,2.79,17.28,-5.66,31.31
51497,-0.32,-0.09,0.98,1.11,9.94,-5.26,31.21
51507,-0.34,-0.09,0.99,1.13,-1.12,-3.35,31.31
51517,-0.31,-0.09,0.98,1.46,-11.41,-1.39,31.21
51527,-0.27,-0.07,0.96,1.61,-18.44,-0.24,31.21
51537,-0.22,-0.06,0.95,1.13,-13.43,0.18,31.26
51547,-0.21,-0.04,0.92,0.56,-9.98,1.53,31.26
51557,-0.21,-0.05,0.91,-1.50,2.03,3.84,31.26
51567,-0.22,-0.05,0.93,-3.46,2.54,5.69,31.17
51577,-0.23,-0.07,0.95,-5.31,5.81,7.97,31.21
51587,-0.23,-0.06,0.99,-6.59,-6.50,8.07,31.26
51597,-0.23,-0.07,0.97,-7.53,-14.46,5.73,31.21
51607,-0.22,-0.07,0.94,-5.93,-27.62,5.22,31.31
51617,-0.23,-0.06,0.94,-8.15,-37.83,5.89,31.31
51627,-0.24,-0.07,0.92,-6.60,-47.48,9.36,31.21
51637,-0.23,-0.06,0.86,-6.74,-38.51,17.19,31.21
51647,-0.22,-0.04,0.84,-8.77,-23.78,26.80,31.26
51657,-0.22,-0.01,0.86,-11.14,-8.32,35.47,31.17
51667,-0.22,-0.02,0.87,-10.71,3.42,43.11,31.26
51677,-0.20,-0.01,0.87,-9.09,12.95,48.08,31.26
51687,-0.23,-0.00,0.89,-5.34,9.26,50.74,31.17
51697,-0.20,-0.00,0.90,-4.80,2.76,48.34,31.26
51707,-0.21,-0.02,0.95,-6.99,-15.98,46.11,31.21
51717,-0.20,-0.02,0.95,-11.55,-25.77,42.82,31.21
51727,-0.18,-0.03,0.96,-15.60,-35.13,39.88,31.31
51737,-0.16,-0.04,0.97,-18.96,-34.73,37.98,31.21
51747,-0.14,-0.04,1.02,-21.44,-29.50,34.76,31.31
51757,-0.13,-0.03,1.05,-29.79,-26.06,29.05,31.21
51767,-0.17,-0.03,1.09,-37.30,-23.45,23.02,31.26
51777,-0.19,-0.06,1.16,-40.04,-22.49,17.80,31.17
51787,-0.24,-0.08,1.21,-39.80,-34.65,14.53,31.26
51797,-0.25,-0.08,1.23,-36.06,-45.22,13.98,31.17
51807,-0.24,-0.10,1.27,-31.09,-49.04,16.24,31.35
51817,-0.20,-0.10,1.24,-25.73,-46.31,19.75,31.26
51827,-0.15,-0.11,1.23,-21.05,-32.24,20.62,31.21
51837,-0.15,-0.14,1.24,-19.52,-20.67,18.33,31.21
51847,-0.17,-0.17,1.24,-16.82,-12.15,15.93,31.31
51857,-0.20,-0.19,1.24,-16.84,-10.56,11.88,31.31
51867,-0.24,-0.24,1.26,-18.22,-22.05,6.34,31.31
51877,-0.23,-0.26,1.22,-19.58,-40.69,0.98,31.21
51887,-0.21,-0.29,1.20,-22.34,-65.34,-7.48,31.26
51897,-0.19,-0.27,1.20,-27.18,-95.64,-12.61,31.17
51907,-0.18,-0.22,1.23,-23.17,-113.91,-12.50,31.26
51917,-0.15,-0.18,1.13,-29.97,-112.54,-13.36,31.26
51927,-0.11,-0.16,1.18,-28.56,-91.36,-12.60,31.31
51937,-0.11,-0.12,1.15,-22.52,-65.33,-10.18,31.26
51947,-0.11,-0.10,1.16,-17.95,-44.17,-7.30,31.31
51957,-0.14,-0.06,1.21,-8.62,-30.36,-1.37,31.21
51967,-0.17,-0.01,1.20,-3.08,-33.43,6.32,31.21
51977,-0.16,-0.01,1.19,3.46,-40.58,10.91,31.21
51987,-0.14,-0.01,1.13,9.14,-45.99,16.46,31.21
51997,-0.12,0.01,1.08,12.53,-45.70,23.04,31.31
52007,-0.06,0.01,1.02,13.24,-35.18,29.68,31.26
52017,-0.05,0.01,1.00,12.33,-26.76,36.08,31.26
52027,0.02,0.00,0.98,10.19,-11.28,39.90,31.26
52037,0.02,0.01,1.00,8.34,-5.78,42.25,31.17
52047,0.08,0.01,0.99,6.81,-0.86,41.99,31.26
52057,0.10,-0.00,0.98,4.50,5.35,39.76,31.21
52067,0.12,0.00,1.01,3.82,1.50,38.63,31.21
52077,0.15,-0.00,0.99,2.66,3.60,34.98,31.21
52087,0.15,-0.01,1.00,2.80,-2.49,34.34,31.12
52097,0.17,-0.01,0.99,3.19,-0.24,31.31,31.21
52107,0.24,-0.03,0.97,2.33,-0.02,26.14,31.21
52117,0.24,-0.02,0.96,-4.66,2.53,17.14,31.21
52127,0.23,-0.05,0.99,-8.30,-0.40,8.19,31.26
52137,0.22,-0.06,1.01,-10.60,-7.07,0.34,31.26
52147,0.19,-0.07,0.99,-13.22,-3.79,-7.47,31.26
52157,0.12,-0.07,1.01,-12.06,-3.60,-12.24,31.26
52167,0.10,-0.09,1.03,-12.79,6.66,-13.44,31.17
52177,0.03,-0.10,1.05,-9.88,8.16,-11.86,31.26
52187,0.01,-0.10,1.05,-8.50,7.24,-12.50,31.21
52197,-0.01,-0.12,1.04,-9.90,7.98,-11.84,31.21
52207,-0.03,-0.13,1.04,-11.40,2.40,-10.29,31.21
52217,-0.05,-0.14,1.04,-11.68,2.89,-8.01,31.21
52227,-0.07,-0.16,1.06,-11.47,-2.05,-4.28,31.31
52237,-0.05,-0.16,1.04,-12.29,-3.80,-0.80,31.21
52247,-0.06,-0.16,1.06,-13.11,-0.67,2.90,31.17
52257,-0.05,-0.14,1.06,-15.21,2.11,6.86,31.26
52267,-0.06,-0.16,1.13,-8.21,3.02,11.77,31.26
52277,-0.00,-0.18,1.10,-4.22,-0.54,13.31,31.26
52287,0.03,-0.18,1.09,-0.34,2.72,14.19,31.17
52297,0.03,-0.17,1.09,2.15,0.16,14.73,31.26
52307,0.06,-0.18,1.09,4.65,4.06,14.69,31.21
52317,0.07,-0.18,1.10,6.27,3.32,13.78,31.21
52327,0.09,-0.18,1.08,7.73,5.05,11.17,31.21
52337,0.08,-0.18,1.09,9.13,2.49,8.89,31.21
52347,0.09,-0.17,1.08,9.90,1.71,5.11,31.21
52357,0.08,-0.16,1.07,9.18,-1.11,1.40,31.31
52367,0.07,-0.15,1.04,8.72,-3.58,-1.49,31.17
52377,0.06,-0.16,1.05,8.05,-5.89,-3.66,31.26
52387,0.03,-0.15,1.03,6.54,-7.05,-4.34,31.26
52397,0.02,-0.14,1.03,4.88,-7.68,-4.43,31.26
52407,0.04,-0.15,1.02,3.02,-8.16,-5.44,31.21
52417,0.06,-0.14,1.01,0.14,-7.38,-7.01,31.26
52427,0.05,-0.14,1.01,-3.37,-6.62,-7.72,31.31
52437,0.02,-0.13,1.02,-4.69,-3.87,-5.80,31.21
52447,0.01,-0.13,1.04,-5.21,-0.61,-2.85,31.21
52457,-0.00,-0.14,1.05,-4.83,3.82,0.63,31.21
52467,0.00,-0.15,1.07,-4.63,6.88,3.77,31.31
52477,0.01,-0.16,1.08,-4.40,7.85,5.47,31.31
52487,0.03,-0.18,1.09,-3.88,5.89,6.02,31.31
52497,0.05,-0.18,1.09,-3.45,5.64,5.76,31.17
52507,0.06,-0.18,1.09,-2.73,5.27,4.40,31.26
52517,0.07,-0.17,1.10,-1.09,4.47,2.78,31.26
52527,0.06,-0.17,1.09,0.82,3.88,1.61,31.26
52537,0.06,-0.16,1.09,3.21,2.95,0.44,31.21
52547,0.06,-0.16,1.06,4.46,2.69,-1.13,31.21
52557,0.06,-0.16,1.05,4.23,2.89,-2.03,31.31
52567,0.06,-0.15,1.02,2.66,3.75,-3.14,31.31
52577,0.05,-0.14,1.02,0.34,2.76,-3.43,31.21
52587,0.04,-0.14,1.01,-2.18,2.40,-4.20,31.21
52597,0.03,-0.13,1.02,-4.06,0.84,-3.79,31.21
52607,0.03,-0.13,1.02,-5.40,2.78,-3.63,31.26
52617,0.01,-0.12,1.04,-7.50,2.71,-2.84,31.35
52627,0.00,-0.14,1.04,-6.92,2.48,0.54,31.26
52637,0.01,-0.14,1.03,-4.85,6.93,4.31,31.17
52647,0.04,-0.15,1.05,-4.63,10.98,4.70,31.26
52657,0.03,-0.16,1.07,-6.70,13.10,2.82,31.17
52667,0.02,-0.16,1.09,-6.92,9.21,0.92,31.21
52677,0.01,-0.16,1.09,-4.92,3.96,1.07,31.21
52687,0.02,-0.16,1.06,-1.80,3.20,3.08,31.31
52697,0.05,-0.16,1.05,-0.49,8.27,4.38,31.21
52707,0.06,-0.17,1.04,-1.57,11.95,4.70,31.31
52717,0.07,-0.18,1.04,-3.60,13.44,4.04,31.21
52727,0.07,-0.19,1.05,-5.45,11.40,2.26,31.26
52737,0.06,-0.19,1.07,-7.27,8.08,-0.47,31.26
52747,0.06,-0.19,1.07,-8.35,3.71,-3.64,31.26
52757,0.04,-0.18,1.08,-7.40,0.62,-5.63,31.31
52767,0.03,-0.18,1.08,-4.44,-0.50,-5.77,31.26
52777,0.02,-0.18,1.07,-2.45,0.02,-5.50,31.35
52787,0.02,-0.17,1.06,-1.89,0.72,-5.07,31.31
52797,0.02,-0.16,1.05,-1.98,1.16,-4.73,31.21
52807,0.01,-0.17,1.04,-2.36,1.57,-4.74,31.21
52817,0.00,-0.16,1.03,-3.39,-0.76,-4.16,31.31
52827,0.00,-0.16,1.03,-4.37,-2.77,-3.89,31.31
52837,-0.00,-0.16,1.03,-5.31,-4.02,-2.78,31.21
52847,0.01,-0.17,1.03,-5.73,-4.26,-1.67,31.26
52857,0.01,-0.16,1.04,-6.24,-2.53,-0.50,31.17
52867,0.02,-0.16,1.05,-6.32,-0.96,0.41,31.26
52877,0.02,-0.17,1.05,-5.47,-0.29,1.61,31.17
52887,0.02,-0.17,1.05,-4.24,-0.37,1.80,31.31
52897,0.01,-0.16,1.07,-3.89,0.08,2.15,31.17
52907,0.02,-0.16,1.07,-2.52,0.17,2.81,31.21
52917,0.02,-0.16,1.07,-0.59,-0.23,3.09,31.21
52927,0.03,-0.17,1.07,0.88,-0.90,2.99,31.21
52937,0.02,-0.15,1.06,2.09,-2.15,2.47,31.31
52947,0.02,-0.15,1.05,2.88,-2.76,2.41,31.31
52957,0.03,-0.15,1.04,3.62,-2.05,2.76,31.21
52967,0.03,-0.15,1.03,2.62,-0.97,1.95,31.17
52977,0.02,-0.14,1.03,0.24,-1.35,0.27,31.17
52987,0.02,-0.14,1.04,-2.10,-4.09,-0.85,31.17
52997,0.00,-0.13,1.04,-3.28,-7.06,-0.57,31.26
53007,0.01,-0.14,1.03,-2.99,-6.73,2.33,31.26
53017,0.04,-0.15,1.02,-3.05,-1.34,5.39,31.12
53027,0.05,-0.15,1.02,-4.73,4.93,6.98,31.21
53037,0.06,-0.16,1.04,-7.18,8.11,6.66,31.31
53047,0.06,-0.17,1.07,-8.24,6.01,4.50,31.21
53057,0.06,-0.17,1.08,-8.63,0.88,2.60,31.21
53067,0.06,-0.17,1.08,-8.21,-3.00,0.22,31.21
53077,0.06,-0.17,1.09,-7.36,-3.50,-1.34,31.21
53087,0.06,-0.17,1.08,-5.92,-2.43,-1.66,31.17
53097,0.03,-0.16,1.07,-5.51,0.67,-1.09,31.26
53107,0.01,-0.16,1.08,-4.69,2.30,0.34,31.26
53117,0.00,-0.15,1.07,-3.89,3.29,2.21,31.17
53127,0.01,-0.16,1.05,-4.32,4.25,3.50,31.26
53137,0.00,-0.15,1.04,-5.20,5.60,4.69,31.35
53147,0.01,-0.16,1.06,-5.40,5.33,6.05,31.12
53157,0.02,-0.16,1.06,-5.48,4.54,6.96,31.31
53167,0.04,-0.15,1.05,-5.16,4.66,7.09,31.21
53177,0.05,-0.16,1.05,-5.64,5.58,6.75,31.21
53187,0.05,-0.15,1.06,-5.48,6.92,6.39,31.31
53197,0.04,-0.16,1.06,-5.53,8.09,5.89,31.17
53207,0.02,-0.15,1.06,-4.68,8.50,5.81,31.17
53217,0.01,-0.15,1.05,-4.17,9.18,6.02,31.17
53227,-0.00,-0.15,1.07,-3.76,10.25,6.87,31.26
53237,-0.02,-0.15,1.07,-3.08,10.92,7.97,31.21
53247,-0.02,-0.16,1.06,-1.95,10.69,10.04,31.26
53257,-0.02,-0.17,1.06,-0.70,11.82,11.42,31.21
53267,-0.02,-0.16,1.06,-0.53,12.71,12.91,31.21
53277,-0.00,-0.16,1.06,0.21,12.99,14.28,31.21
53287,0.01,-0.18,1.07,0.12,13.24,14.64,31.31
53297,0.02,-0.18,1.07,-0.12,12.46,13.95,31.21
53307,0.05,-0.18,1.06,-0.72,10.31,11.64,31.21
53317,0.06,-0.17,1.07,-0.39,7.44,8.46,31.26
53327,0.06,-0.17,1.05,0.15,4.59,4.92,31.26
53337,0.06,-0.16,1.06,-0.15,2.83,1.94,31.17
53347,0.06,-0.16,1.04,-0.62,2.13,-0.21,31.26
53357,0.05,-0.15,1.04,-0.87,1.53,-2.62,31.17
53367,0.05,-0.14,1.04,-1.76,1.73,-4.95,31.31
53377,0.02,-0.14,1.03,-3.11,1.02,-6.27,31.21
53387,0.00,-0.14,1.03,-3.98,-0.62,-6.85,31.21
53397,-0.01,-0.14,1.04,-4.78,-1.31,-7.24,31.31
53407,-0.03,-0.14,1.02,-5.68,-2.31,-6.66,31.21
53417,-0.04,-0.13,1.03,-6.82,-2.76,-5.38,31.31
53427,-0.04,-0.14,1.02,-7.93,-1.64,-3.41,31.21
53437,-0.04,-0.14,1.04,-8.98,-0.07,-0.67,31.26
53447,-0.03,-0.15,1.04,-9.34,2.23,1.15,31.26
53457,-0.03,-0.16,1.06,-9.37,1.74,2.60,31.17
53467,-0.02,-0.15,1.07,-8.27,1.53,3.45,31.26
53477,-0.02,-0.16,1.07,-7.59,1.23,4.17,31.26
53487,-0.00,-0.16,1.06,-6.36,2.31,5.78,31.31
53497,0.02,-0.17,1.07,-5.31,4.73,5.74,31.12
53507,0.03,-0.18,1.07,-5.20,5.40,5.00,31.31
53517,0.03,-0.19,1.09,-4.39,2.70,3.24,31.31
53527,0.04,-0.19,1.08,-3.04,-0.48,1.41,31.31
53537,0.04,-0.19,1.06,-2.96,-2.30,-0.47,31.31
53547,0.04,-0.18,1.06,-3.46,-1.91,-2.63,31.26
53557,0.03,-0.17,1.06,-4.18,-2.21,-4.08,31.26
53567,0.02,-0.16,1.05,-4.11,-3.05,-5.01,31.26
53577,0.01,-0.15,1.05,-3.98,-3.06,-4.51,31.26
53587,-0.02,-0.15,1.04,-3.70,-2.31,-3.61,31.21
53597,-0.02,-0.15,1.04,-3.94,-0.56,-2.34,31.26
53607,-0.03,-0.15,1.05,-4.50,-0.03,-0.50,31.17
53617,-0.02,-0.15,1.05,-4.57,-0.20,0.35,31.21
53627,-0.02,-0.15,1.05,-5.11,-0.91,1.02,31.31
53637,-0.02,-0.15,1.05,-5.28,-1.40,2.82,31.21
53647,-0.00,-0.15,1.06,-3.73,0.44,4.23,31.21
53657,0.02,-0.16,1.05,-3.43,2.84,5.04,31.31
53667,0.02,-0.16,1.06,-4.06,3.98,4.90,31.31
53677,0.02,-0.16,1.05,-5.11,3.01,3.68,31.26
53687,0.02,-0.17,1.05,-5.59,1.00,2.37,31.35
53697,0.01,-0.16,1.06,-6.00,-0.77,1.23,31.26
53707,0.02,-0.16,1.07,-5.12,-2.48,0.74,31.26
53717,0.03,-0.15,1.06,-4.23,-2.08,0.27,31.21
53727,0.03,-0.16,1.04,-3.76,-1.05,0.21,31.26
53737,0.03,-0.17,1.06,-4.56,-0.55,-0.34,31.21
53747,0.02,-0.16,1.05,-5.49,-0.52,-1.20,31.21
53757,0.02,-0.17,1.07,-5.50,-1.21,-1.79,31.31
53767,0.01,-0.16,1.07,-4.66,-4.17,-1.91,31.21
53777,0.00,-0.16,1.07,-3.79,-5.21,-1.74,31.21
53787,-0.00,-0.16,1.07,-3.18,-4.65,-1.31,31.21
53797,0.00,-0.16,1.06,-3.47,-3.65,-0.21,31.26
53807,0.00,-0.15,1.06,-3.53,-1.86,1.33,31.26
53817,0.01,-0.15,1.06,-2.69,-0.31,2.55,31.26
53827,0.02,-0.15,1.06,-2.63,1.99,3.37,31.26
53837,0.02,-0.15,1.06,-2.68,3.43,3.69,31.17
53847,0.02,-0.15,1.05,-2.90,3.44,4.29,31.21
53857,0.03,-0.16,1.05,-3.27,2.99,4.01,31.21
53867,0.04,-0.16,1.04,-3.82,2.98,3.66,31.21
53877,0.04,-0.16,1.06,-4.79,2.37,2.54,31.21
53887,0.05,-0.16,1.06,-5.38,2.63,1.15,31.21
53897,0.04,-0.16,1.06,-5.76,1.66,-0.06,31.31
53907,0.04,-0.16,1.08,-5.53,0.49,-0.83,31.31
53917,0.03,-0.16,1.07,-4.61,0.80,-0.96,31.31
53927,0.03,-0.16,1.07,-3.76,1.38,-0.98,31.26
53937,0.01,-0.15,1.08,-3.15,2.28,-1.05,31.26
53947,0.01,-0.15,1.07,-2.66,2.38,-0.47,31.26
53957,0.00,-0.15,1.06,-2.17,2.69,0.09,31.17
53967,-0.01,-0.15,1.06,-2.27,2.70,1.03,31.17
53977,-0.03,-0.14,1.07,-1.78,3.46,2.81,31.31
53987,-0.04,-0.14,1.06,-0.66,4.85,5.42,31.31
53997,-0.04,-0.14,1.05,0.21,6.35,8.36,31.21
54007,-0.05,-0.14,1.06,0.92,7.95,11.34,31.40
54017,-0.03,-0.14,1.05,1.43,9.69,13.75,31.31
54027,-0.02,-0.14,1.06,1.03,10.95,15.25,31.31
54037,-0.02,-0.15,1.06,1.29,11.76,16.74,31.31
54047,0.00,-0.15,1.07,1.70,11.27,17.06,31.35
54057,0.02,-0.15,1.07,1.91,10.40,15.98,31.26
54067,0.04,-0.15,1.06,2.59,9.13,14.06,31.26
54077,0.05,-0.14,1.07,3.46,7.42,11.90,31.26
54087,0.05,-0.15,1.06,3.45,6.33,9.88,31.26
54097,0.06,-0.14,1.05,2.84,5.83,8.15,31.26
54107,0.08,-0.15,1.05,2.01,5.33,6.04,31.31
54117,0.08,-0.15,1.05,0.84,5.44,2.92,31.31
54127,0.08,-0.15,1.07,0.35,4.85,-0.37,31.31
54137,0.08,-0.14,1.06,0.46,4.24,-3.76,31.21
