Timestamp,Acce_X,Acce_Y,Acce_Z,Gyro_X,Gyro_Y,Gyro_Z,Temp
75357,0.17,-0.18,0.88,2.17,2.52,0.79,29.00
75367,0.17,-0.18,0.87,1.82,2.68,0.92,29.00
75377,0.17,-0.18,0.87,2.69,1.79,0.88,29.05
75387,0.17,-0.17,0.88,3.29,1.29,1.17,29.05
75397,0.17,-0.17,0.88,3.89,-0.05,1.29,29.00
75407,0.16,-0.18,0.87,3.27,-1.18,1.80,29.00
75417,0.16,-0.18,0.87,3.07,-0.89,2.34,29.05
75427,0.16,-0.18,0.88,3.18,0.78,2.83,29.05
75437,0.17,-0.18,0.88,3.84,2.60,3.37,29.00
75447,0.17,-0.18,0.89,4.53,3.56,4.28,29.00
75457,0.17,-0.18,0.89,5.59,3.12,3.64,29.14
75467,0.19,-0.17,0.87,6.76,4.22,3.64,29.05
75477,0.19,-0.17,0.86,7.08,4.75,3.45,29.05
75487,0.20,-0.16,0.85,6.79,5.05,3.33,29.09
75497,0.19,-0.16,0.84,5.77,5.54,3.39,29.09
75507,0.19,-0.15,0.83,4.12,5.56,2.79,29.05
75517,0.19,-0.14,0.83,3.01,5.24,2.58,29.05
75527,0.17,-0.13,0.84,2.12,4.95,3.08,29.00
75537,0.15,-0.13,0.84,2.50,4.67,4.05,29.00
75547,0.14,-0.11,0.83,3.44,6.27,5.13,29.00
75557,0.11,-0.09,0.83,5.06,9.79,8.21,29.05
75567,0.09,-0.08,0.83,6.70,11.63,11.18,29.05
75577,0.07,-0.06,0.86,8.66,11.29,13.64,29.00
75587,0.07,-0.03,0.87,11.15,9.20,16.46,29.09
75597,0.09,-0.04,0.86,13.95,5.05,15.60,29.05
75607,0.18,-0.03,0.81,18.42,4.47,13.60,28.95
75617,0.22,0.00,0.73,18.91,12.38,12.11,29.00
75627,0.26,0.02,0.71,18.76,19.66,9.05,29.09
75637,0.25,0.02,0.71,19.02,26.57,5.45,29.05
75647,0.21,0.04,0.75,18.60,26.21,2.68,29.05
75657,0.15,0.06,0.81,16.89,20.74,2.37,29.00
75667,0.12,0.07,0.86,15.85,15.03,3.42,29.09
75677,0.13,0.08,0.92,17.20,11.65,3.96,29.05
75687,0.14,0.09,0.94,16.89,10.50,3.48,29.05
75697,0.16,0.09,0.97,18.70,11.76,4.39,29.05
75707,0.20,0.07,0.99,23.58,16.08,2.89,29.00
75717,0.25,0.04,0.99,29.42,25.60,-3.25,29.09
75727,0.28,0.06,0.96,30.85,29.33,-14.44,29.09
75737,0.29,0.07,0.94,29.12,33.47,-26.46,29.05
75747,0.24,0.10,0.96,26.05,32.46,-37.61,29.00
75757,0.14,0.12,1.00,25.51,19.15,-49.03,29.09
75767,0.07,0.13,0.98,26.30,5.60,-53.45,28.95
75777,0.05,0.16,0.93,27.62,-2.85,-53.98,29.05
75787,0.04,0.17,0.89,28.05,-2.83,-52.19,29.05
75797,0.04,0.18,0.86,28.05,3.12,-49.95,29.00
75807,0.05,0.19,0.82,23.11,12.18,-50.51,28.91
75817,0.04,0.21,0.82,16.05,18.89,-50.92,29.05
75827,0.01,0.21,0.85,9.01,16.97,-51.23,28.95
75837,-0.03,0.21,0.88,1.34,7.44,-52.52,29.00
75847,-0.07,0.20,0.88,-3.95,-4.13,-49.44,29.09
75857,-0.08,0.18,0.89,-9.40,-19.49,-45.78,28.95
75867,-0.05,0.16,0.86,-15.01,-33.36,-41.74,29.05
75877,-0.02,0.10,0.80,-20.20,-36.02,-34.98,29.05
75887,0.05,0.08,0.79,-27.95,-29.50,-28.24,29.00
75897,0.10,0.04,0.80,-33.52,-15.23,-24.97,29.00
75907,0.12,-0.02,0.84,-37.22,-1.72,-20.51,29.09
75917,0.16,-0.08,0.90,-39.56,4.52,-18.48,29.05
75927,0.23,-0.13,0.95,-39.98,3.92,-22.87,29.00
75937,0.27,-0.17,1.04,-38.08,-3.25,-29.46,29.00
75947,0.28,-0.20,1.08,-32.94,-13.83,-34.48,29.05
75957,0.26,-0.22,1.07,-26.34,-23.74,-40.35,29.05
75967,0.23,-0.25,1.04,-20.08,-29.90,-42.79,28.91
75977,0.21,-0.25,1.04,-15.31,-34.60,-38.73,29.00
75987,0.21,-0.24,1.00,-11.11,-28.90,-34.12,29.00
75997,0.22,-0.26,0.96,-9.87,-18.27,-30.35,29.05
76007,0.26,-0.28,0.94,-11.05,-8.21,-27.49,28.95
76017,0.29,-0.30,0.94,-12.37,-3.00,-27.56,29.00
76027,0.32,-0.31,0.99,-14.14,-9.49,-31.17,29.09
76037,0.31,-0.30,1.05,-8.37,-19.93,-30.14,29.05
76047,0.31,-0.30,1.04,1.79,-30.28,-30.92,29.05
76057,0.30,-0.29,1.00,10.72,-33.06,-30.62,29.09
76067,0.30,-0.25,0.94,15.97,-30.82,-27.74,29.09
76077,0.33,-0.25,0.88,15.04,-17.83,-27.88,29.09
76087,0.33,-0.25,0.90,14.37,-3.60,-27.42,29.00
76097,0.26,-0.23,0.96,17.49,2.41,-23.16,29.05
76107,0.17,-0.21,0.98,23.40,-1.31,-18.02,29.09
76117,0.10,-0.16,0.98,30.37,-1.69,-4.47,29.00
76127,0.13,-0.16,0.93,37.61,6.96,5.01,28.95
76137,0.18,-0.16,0.90,41.94,31.79,10.35,28.95
76147,0.19,-0.13,0.90,43.27,60.00,14.10,29.05
76157,0.14,-0.11,0.91,40.70,72.41,18.09,29.00
76167,0.10,-0.07,0.92,33.17,62.41,20.85,28.91
76177,0.10,-0.05,0.95,29.70,47.15,23.29,29.05
76187,0.12,-0.05,0.96,28.02,33.02,20.72,29.05
76197,0.20,-0.08,0.99,27.61,30.56,17.56,29.00
76207,0.24,-0.12,1.03,32.33,34.12,12.78,29.00
76217,0.18,-0.14,1.03,35.49,35.69,8.60,29.00
76227,0.11,-0.13,0.97,36.60,34.88,6.08,29.05
76237,0.05,-0.11,0.92,35.05,23.69,8.57,29.05
76247,0.03,-0.10,0.86,36.90,13.16,11.74,29.00
76257,0.02,-0.09,0.79,33.41,17.80,20.81,29.00
76267,0.07,-0.12,0.74,27.56,28.70,26.50,29.09
76277,0.11,-0.15,0.74,18.27,47.00,29.04,28.95
76287,0.09,-0.16,0.82,7.65,53.85,29.31,29.00
76297,0.09,-0.18,0.93,0.04,41.50,24.79,28.91
76307,0.06,-0.17,1.01,-3.34,8.54,16.63,29.00
76317,0.03,-0.19,1.01,-0.73,-26.11,10.12,28.95
76327,0.03,-0.18,0.92,5.27,-51.56,9.14,29.05
76337,0.06,-0.16,0.82,7.93,-58.57,12.87,29.00
76347,0.07,-0.16,0.76,9.93,-26.68,17.13,29.00
76357,0.07,-0.17,0.74,8.54,16.50,23.18,28.95
76367,0.06,-0.19,0.79,3.47,43.08,28.27,28.95
76377,0.07,-0.25,0.81,-4.67,45.15,28.14,29.00
76387,0.07,-0.27,0.82,-8.05,25.86,24.58,29.00
76397,0.04,-0.28,0.84,-14.22,1.26,20.65,29.05
76407,0.03,-0.28,0.87,-19.37,-23.64,17.46,29.05
76417,0.02,-0.27,0.91,-21.53,-41.32,15.20,28.95
76427,0.01,-0.26,0.94,-21.74,-53.02,15.40,29.00
76437,0.04,-0.26,0.92,-20.53,-58.18,16.87,29.00
76447,0.10,-0.24,0.88,-17.83,-48.55,18.82,29.09
76457,0.11,-0.24,0.88,-11.76,-25.88,20.21,29.05
76467,0.11,-0.23,0.91,-4.89,0.11,20.79,29.00
76477,0.06,-0.22,0.93,2.21,16.07,21.34,28.91
76487,0.03,-0.20,0.92,3.75,15.54,21.37,28.95
76497,0.02,-0.18,0.93,0.08,-0.08,20.70,28.95
76507,0.04,-0.18,0.89,-2.80,-17.85,17.96,29.00
76517,0.03,-0.18,0.87,-5.02,-29.19,17.16,29.00
76527,0.03,-0.17,0.85,-5.11,-26.78,16.98,29.00
76537,0.01,-0.16,0.88,-4.63,-10.52,18.82,28.95
76547,-0.01,-0.18,0.91,-2.54,7.96,17.45,28.95
76557,-0.08,-0.20,0.97,-0.58,17.15,19.46,29.00
76567,-0.14,-0.20,0.96,1.34,5.67,25.21,28.91
76577,-0.13,-0.21,0.93,7.18,-13.66,31.81,28.95
76587,-0.03,-0.21,0.79,4.72,-23.06,38.50,29.05
76597,0.07,-0.21,0.76,0.92,-21.74,39.44,28.91
76607,0.14,-0.25,0.75,-5.66,-17.62,37.48,29.09
76617,0.18,-0.30,0.79,-13.37,-23.11,35.44,29.00
76627,0.26,-0.39,0.82,-18.85,-39.11,31.37,29.00
76637,0.37,-0.43,0.79,-19.32,-44.94,28.50,28.95
76647,0.47,-0.49,0.78,-19.13,-35.03,22.82,29.00
76657,0.54,-0.54,0.82,-19.06,-7.40,14.28,29.00
76667,0.51,-0.57,0.91,-16.27,18.63,4.31,28.95
76677,0.42,-0.57,0.96,-13.44,31.69,-6.09,28.95
76687,0.32,-0.50,0.95,-8.79,32.26,-17.58,28.95
76697,0.20,-0.42,0.94,0.96,23.98,-27.58,28.91
76707,0.06,-0.34,0.88,9.15,13.50,-35.18,29.09
76717,-0.08,-0.30,0.83,14.56,-4.21,-41.44,28.95
76727,-0.18,-0.21,0.78,3.05,-19.01,-33.89,28.95
76737,-0.17,-0.22,0.77,-2.60,-20.43,-28.19,29.09
76747,-0.09,-0.26,0.73,-7.88,-1.17,-25.24,29.00
76757,-0.02,-0.32,0.77,-11.15,23.96,-23.01,29.09
76767,0.02,-0.36,0.83,-10.55,39.56,-24.81,28.95
76777,0.04,-0.36,0.87,-8.43,38.92,-28.74,29.05
76787,0.03,-0.35,0.91,-6.02,27.73,-33.55,29.00
76797,-0.00,-0.33,0.93,-1.05,9.32,-36.89,29.00
76807,-0.04,-0.31,0.94,1.59,-7.39,-39.01,29.00
76817,-0.06,-0.28,0.94,4.66,-13.71,-38.00,29.05
76827,-0.08,-0.25,0.90,8.73,-6.78,-33.60,29.09
76837,-0.07,-0.20,0.87,8.49,6.11,-27.03,29.00
76847,-0.04,-0.16,0.86,5.60,18.32,-21.66,29.00
76857,-0.02,-0.13,0.87,1.73,22.20,-18.26,29.05
76867,0.01,-0.08,0.88,-2.89,10.05,-15.74,28.95
76877,0.04,-0.07,0.87,-5.58,-4.45,-13.56,29.09
76887,0.11,-0.08,0.86,-4.22,-8.79,-10.94,29.00
76897,0.16,-0.10,0.83,-1.40,0.73,-9.09,28.95
76907,0.20,-0.10,0.87,-0.25,18.86,-6.91,29.05
76917,0.21,-0.11,0.91,-0.09,32.48,-6.79,29.05
76927,0.18,-0.11,0.96,-2.24,35.92,-6.66,28.91
76937,0.14,-0.11,1.02,-3.37,25.93,-5.64,29.00
76947,0.15,-0.10,1.03,1.11,14.62,-5.63,28.95
76957,0.17,-0.10,0.98,5.79,9.34,-5.31,29.05
76967,0.21,-0.10,0.92,8.95,8.85,-5.63,28.91
76977,0.25,-0.11,0.88,10.05,14.46,-5.92,29.09
76987,0.25,-0.13,0.85,7.01,21.85,-6.30,29.00
76997,0.25,-0.16,0.87,4.12,27.93,-6.76,28.95
77007,0.22,-0.17,0.91,2.01,28.02,-9.27,29.05
77017,0.17,-0.17,0.95,-1.52,18.49,-10.80,29.09
77027,0.14,-0.19,0.96,-2.02,6.81,-12.08,28.91
77037,0.13,-0.20,0.94,-0.89,0.13,-12.14,29.05
77047,0.13,-0.23,0.96,1.71,-3.71,-12.45,28.95
77057,0.15,-0.24,0.89,1.67,-5.57,-12.30,28.91
77067,0.18,-0.24,0.88,0.44,-4.69,-13.40,29.09
77077,0.20,-0.26,0.89,3.49,3.61,-14.66,29.00
77087,0.20,-0.25,0.90,7.47,9.70,-16.85,29.05
77097,0.21,-0.26,0.87,12.18,15.27,-21.63,29.05
77107,0.17,-0.26,0.84,10.55,14.01,-24.92,29.00
77117,0.11,-0.27,0.84,3.23,2.50,-26.31,29.00
77127,0.08,-0.27,0.83,-5.66,-5.98,-26.94,29.05
77137,0.06,-0.27,0.84,-12.66,-11.79,-26.80,28.95
77147,0.08,-0.26,0.84,-17.79,-12.37,-27.59,28.95
77157,0.10,-0.26,0.87,-18.88,-12.14,-29.15,29.09
77167,0.10,-0.27,0.91,-15.41,-12.28,-29.99,29.00
77177,0.09,-0.28,0.92,-9.31,-13.53,-30.82,29.00
77187,0.09,-0.29,0.86,-4.27,-9.73,-30.44,28.95
77197,0.08,-0.30,0.85,-4.35,-5.09,-29.83,29.09
77207,0.07,-0.30,0.83,-6.89,2.41,-29.66,29.00
77217,0.05,-0.29,0.83,-12.80,7.47,-27.99,29.00
77227,0.01,-0.28,0.85,-17.43,5.05,-25.53,28.95
77237,-0.03,-0.25,0.85,-21.40,-1.75,-22.15,28.95
77247,-0.04,-0.26,0.85,-22.34,-12.96,-18.62,29.00
77257,-0.01,-0.25,0.84,-25.02,-19.57,-16.34,29.00
77267,-0.00,-0.23,0.85,-28.27,-25.20,-14.69,29.05
77277,-0.01,-0.22,0.87,-31.47,-25.92,-11.19,28.95
77287,0.02,-0.22,0.88,-30.57,-19.46,-7.64,29.00
77297,0.03,-0.21,0.91,-27.15,-8.69,-4.89,29.09
77307,0.05,-0.21,0.95,-23.11,-1.79,-3.88,29.00
77317,0.07,-0.19,0.94,-18.98,-0.10,-6.21,28.95
77327,0.08,-0.19,0.92,-17.73,-1.15,-9.00,29.05
77337,0.04,-0.16,0.93,-17.75,-4.85,-10.63,29.00
77347,-0.03,-0.12,0.95,-18.66,-13.77,-8.97,28.91
77357,-0.06,-0.12,0.96,-17.49,-25.37,-4.40,29.00
77367,-0.05,-0.11,0.95,-17.66,-37.19,0.07,29.05
77377,-0.01,-0.11,0.93,-16.58,-42.28,5.56,29.09
77387,0.04,-0.12,0.91,-16.69,-36.54,11.40,29.00
77397,0.08,-0.13,0.92,-14.80,-22.30,15.53,29.00
77407,0.11,-0.15,0.96,-8.73,-2.25,17.57,28.95
77417,0.10,-0.15,0.99,-4.04,7.45,18.30,29.05
77427,0.08,-0.14,1.01,1.26,5.48,17.25,29.00
77437,0.09,-0.14,0.98,5.24,-6.55,15.05,29.00
77447,0.10,-0.12,0.95,7.47,-16.56,13.14,29.05
77457,0.10,-0.12,0.92,10.84,-18.94,13.96,29.05
77467,0.12,-0.11,0.89,13.32,-16.12,15.60,28.95
77477,0.15,-0.11,0.86,14.45,-9.76,17.22,28.91
77487,0.15,-0.13,0.84,13.97,-0.59,18.73,29.00
77497,0.15,-0.14,0.85,13.90,4.66,19.19,28.95
77507,0.12,-0.14,0.85,12.86,2.16,20.66,29.05
77517,0.12,-0.15,0.87,11.36,-5.27,21.79,29.00
77527,0.14,-0.16,0.85,11.37,-11.31,24.18,29.00
77537,0.16,-0.16,0.85,9.75,-12.72,26.47,29.00
77547,0.20,-0.16,0.85,8.59,-9.32,26.90,28.95
77557,0.23,-0.16,0.85,8.51,-5.36,25.09,28.95
77567,0.24,-0.17,0.85,7.46,-1.49,23.99,29.00
77577,0.22,-0.17,0.86,7.20,-2.34,21.34,29.00
77587,0.20,-0.18,0.86,7.44,-5.40,19.36,29.05
77597,0.19,-0.19,0.83,6.16,-9.92,17.45,29.05
77607,0.16,-0.18,0.83,3.19,-12.60,18.25,29.09
77617,0.17,-0.18,0.81,-0.02,-10.59,19.34,29.00
77627,0.17,-0.18,0.83,-0.97,-7.15,21.95,29.05
77637,0.19,-0.20,0.83,-2.56,-2.89,23.03,28.95
77647,0.23,-0.21,0.86,-4.28,1.56,22.76,29.05
77657,0.25,-0.21,0.89,-4.05,2.97,18.35,29.00
77667,0.25,-0.21,0.91,-3.21,-0.51,13.47,29.00
77677,0.22,-0.22,0.91,-2.73,-7.78,8.88,29.05
77687,0.21,-0.22,0.89,-2.77,-15.04,4.88,29.05
77697,0.22,-0.21,0.89,-4.50,-17.05,1.54,29.00
77707,0.19,-0.21,0.89,-6.70,-17.26,-0.99,29.09
77717,0.19,-0.21,0.89,-7.69,-16.42,-2.21,29.00
77727,0.18,-0.21,0.88,-6.40,-13.31,-4.05,29.05
77737,0.18,-0.22,0.88,-2.50,-10.54,-4.21,28.95
77747,0.19,-0.21,0.86,1.74,-7.91,-6.15,29.00
77757,0.21,-0.20,0.82,4.24,-4.02,-7.72,28.91
77767,0.21,-0.18,0.79,4.11,-1.93,-10.18,28.95
77777,0.21,-0.18,0.76,2.94,2.42,-13.82,29.05
77787,0.19,-0.19,0.77,-0.54,-0.10,-16.66,29.00
77797,0.21,-0.18,0.77,-5.45,-5.09,-18.96,29.09
77807,0.21,-0.19,0.78,-10.53,-9.07,-22.11,29.00
77817,0.20,-0.19,0.80,-13.56,-14.54,-23.58,29.05
77827,0.19,-0.20,0.82,-16.72,-18.54,-25.52,28.95
77837,0.19,-0.20,0.84,-17.94,-19.49,-25.96,29.00
77847,0.20,-0.22,0.86,-17.36,-17.37,-25.96,29.00
77857,0.20,-0.22,0.88,-15.94,-13.65,-25.08,29.05
77867,0.21,-0.23,0.90,-14.41,-8.72,-23.92,29.14
77877,0.20,-0.24,0.90,-12.89,-5.16,-22.15,29.00
77887,0.19,-0.23,0.91,-13.36,-4.08,-19.74,29.00
77897,0.18,-0.24,0.93,-13.44,-6.31,-18.36,29.00
77907,0.17,-0.24,0.94,-12.76,-14.18,-18.11,29.00
77917,0.17,-0.24,0.92,-12.60,-15.63,-16.13,29.05
77927,0.16,-0.24,0.93,-11.21,-16.50,-13.59,29.00
77937,0.15,-0.24,0.92,-9.62,-16.04,-11.31,29.00
77947,0.14,-0.24,0.89,-13.09,-18.63,-8.32,28.95
77957,0.12,-0.25,0.93,-15.09,-19.64,-3.73,28.95
77967,0.14,-0.26,0.94,-14.27,-21.24,0.38,29.05
77977,0.15,-0.27,0.93,-13.80,-17.58,5.70,29.00
77987,0.18,-0.29,0.97,-9.08,-12.75,9.44,29.00
77997,0.18,-0.30,1.00,-1.86,-3.69,13.23,29.05
78007,0.19,-0.31,1.00,4.40,0.72,17.03,29.05
78017,0.20,-0.31,0.98,10.39,8.18,20.76,28.95
78027,0.22,-0.31,0.97,14.73,10.65,20.59,29.00
78037,0.21,-0.31,0.98,18.50,10.37,19.13,29.09
78047,0.20,-0.30,0.98,19.47,2.82,15.97,29.05
78057,0.17,-0.28,0.98,20.56,-7.60,14.11,28.95
78067,0.17,-0.27,0.94,23.12,-18.13,13.28,29.00
78077,0.17,-0.25,0.89,25.86,-20.88,12.76,29.00
78087,0.18,-0.22,0.85,26.42,-15.65,14.85,29.00
78097,0.17,-0.20,0.84,25.20,-10.02,16.53,29.05
78107,0.16,-0.19,0.84,23.77,-5.18,19.76,28.95
78117,0.15,-0.17,0.83,22.96,-2.00,23.40,29.09
78127,0.16,-0.17,0.82,23.95,0.45,26.01,29.09
78137,0.17,-0.17,0.80,25.78,4.11,28.57,28.95
78147,0.17,-0.16,0.81,25.78,6.02,29.59,28.95
78157,0.17,-0.16,0.82,22.87,5.99,28.91,29.09
78167,0.19,-0.16,0.83,19.13,1.98,26.45,29.00
78177,0.18,-0.15,0.83,16.02,-5.45,22.98,29.00
78187,0.18,-0.14,0.84,12.63,-15.03,18.79,29.05
78197,0.19,-0.14,0.83,10.49,-22.88,14.96,29.05
78207,0.20,-0.12,0.81,9.55,-26.55,12.53,29.00
78217,0.21,-0.12,0.78,8.37,-25.96,10.35,29.09
78227,0.21,-0.12,0.77,6.72,-22.12,9.95,28.95
78237,0.23,-0.12,0.75,5.10,-18.02,9.62,28.95
78247,0.22,-0.12,0.73,2.42,-14.31,9.47,29.00
78257,0.20,-0.13,0.75,-0.47,-12.57,10.29,29.00
78267,0.21,-0.16,0.76,-2.82,-13.24,10.47,29.09
78277,0.21,-0.17,0.79,-4.96,-16.67,10.44,29.00
78287,0.22,-0.19,0.81,-7.69,-21.02,9.96,28.95
78297,0.23,-0.21,0.82,-9.22,-24.04,9.37,29.00
78307,0.23,-0.22,0.85,-9.49,-24.71,9.50,29.09
78317,0.25,-0.24,0.86,-8.55,-22.91,9.27,28.95
78327,0.27,-0.25,0.87,-7.15,-19.96,9.01,29.05
78337,0.26,-0.26,0.88,-5.96,-18.50,9.08,29.00
78347,0.25,-0.27,0.90,-3.38,-19.56,9.48,29.00
78357,0.25,-0.29,0.91,0.47,-19.05,9.75,28.91
78367,0.26,-0.30,0.91,3.62,-17.28,9.56,28.95
78377,0.26,-0.30,0.90,5.08,-15.74,8.79,29.05
78387,0.26,-0.30,0.92,5.90,-15.19,7.51,29.09
78397,0.25,-0.29,0.91,6.80,-16.16,7.34,29.09
78407,0.25,-0.28,0.89,7.97,-17.40,7.47,29.05
78417,0.26,-0.28,0.87,8.32,-16.92,7.63,29.05
78427,0.25,-0.27,0.87,7.98,-16.09,8.02,29.05
78437,0.25,-0.27,0.86,7.35,-15.50,8.84,29.09
78447,0.26,-0.26,0.85,7.05,-14.63,9.79,29.00
78457,0.28,-0.25,0.84,6.48,-13.17,10.50,29.00
78467,0.28,-0.25,0.83,6.73,-10.60,10.95,29.05
78477,0.29,-0.25,0.83,6.27,-7.47,10.62,29.09
78487,0.31,-0.24,0.81,5.31,-4.89,9.50,29.00
78497,0.30,-0.23,0.81,3.53,-3.61,7.16,29.05
78507,0.29,-0.23,0.81,0.60,-4.83,4.28,29.05
78517,0.30,-0.22,0.80,-3.54,-7.36,-0.11,29.00
78527,0.29,-0.21,0.80,-7.22,-8.34,-1.98,29.00
78537,0.28,-0.22,0.82,-11.81,-15.88,-9.82,28.91
78547,0.27,-0.21,0.78,-15.29,-12.65,-15.55,28.95
78557,0.26,-0.21,0.80,-13.98,-13.28,-15.24,29.05
78567,0.25,-0.20,0.79,-11.32,-8.56,-11.66,29.00
78577,0.24,-0.20,0.82,-11.11,-3.11,-5.02,29.00
78587,0.26,-0.20,0.85,-13.86,-3.56,-1.39,29.05
78597,0.26,-0.22,0.84,-11.59,-7.83,2.53,29.05
78607,0.30,-0.25,0.86,-4.99,-0.42,4.11,29.00
78617,0.31,-0.25,0.85,1.70,3.46,3.26,29.00
78627,0.32,-0.25,0.85,4.11,7.40,1.92,29.09
78637,0.33,-0.26,0.87,4.05,6.78,-0.36,29.05
78647,0.32,-0.26,0.87,5.21,4.34,-4.18,29.05
78657,0.30,-0.26,0.85,6.06,2.17,-6.42,29.09
78667,0.29,-0.26,0.84,7.06,-1.93,-7.00,29.00
78677,0.30,-0.26,0.83,8.30,-1.05,-6.66,28.95
78687,0.29,-0.25,0.82,9.44,1.78,-6.15,28.95
78697,0.28,-0.25,0.81,9.57,3.85,-5.21,29.00
78707,0.28,-0.24,0.82,9.46,4.37,-3.63,28.91
78717,0.28,-0.24,0.82,9.83,5.78,-3.48,29.05
78727,0.28,-0.24,0.82,9.91,7.03,-4.31,28.95
78737,0.27,-0.24,0.82,9.76,7.74,-5.77,29.00
78747,0.26,-0.25,0.83,9.26,6.03,-6.98,29.00
78757,0.25,-0.24,0.85,7.97,1.58,-7.87,28.91
78767,0.25,-0.23,0.84,7.63,-2.83,-7.49,29.14
78777,0.24,-0.23,0.83,8.08,-6.76,-6.22,29.05
78787,0.24,-0.23,0.82,8.27,-5.21,-4.02,29.00
78797,0.25,-0.23,0.82,8.71,-1.69,-1.68,28.91
78807,0.26,-0.23,0.81,8.52,4.34,0.68,29.00
78817,0.26,-0.23,0.83,8.31,9.05,2.37,28.95
78827,0.26,-0.23,0.81,7.67,10.75,3.03,29.00
78837,0.26,-0.23,0.83,7.54,9.60,3.59,29.00
78847,0.26,-0.24,0.83,7.53,6.70,3.53,29.05
78857,0.26,-0.24,0.82,7.21,5.03,4.44,28.95
78867,0.27,-0.24,0.81,5.72,3.53,4.27,29.00
78877,0.30,-0.24,0.80,3.61,5.57,3.50,29.00
78887,0.30,-0.24,0.81,1.55,6.58,2.61,29.00
78897,0.29,-0.24,0.82,-0.76,5.11,0.25,29.05
78907,0.30,-0.23,0.81,-2.51,1.50,-3.57,28.95
78917,0.30,-0.22,0.83,-3.55,-1.68,-6.83,29.00
78927,0.29,-0.21,0.83,-3.08,-4.18,-9.63,29.00
78937,0.29,-0.21,0.83,-3.15,-7.67,-13.57,29.05
78947,0.29,-0.20,0.82,-3.60,-11.76,-16.08,28.95
78957,0.27,-0.20,0.81,-4.82,-14.84,-18.07,29.00
78967,0.25,-0.20,0.81,-5.00,-17.02,-17.73,29.09
78977,0.26,-0.21,0.81,-4.68,-16.11,-15.61,29.09
78987,0.26,-0.22,0.81,-5.16,-12.72,-12.97,29.05
78997,0.26,-0.23,0.82,-5.25,-7.31,-10.27,29.05
79007,0.26,-0.25,0.86,-4.32,-1.85,-7.85,29.00
79017,0.26,-0.27,0.87,-2.57,-0.61,-5.69,28.91
79027,0.26,-0.28,0.87,-0.16,-1.47,-4.21,29.14
79037,0.28,-0.29,0.86,0.31,-0.14,-2.83,29.05
79047,0.28,-0.30,0.85,1.52,1.98,-1.66,29.00
79057,0.27,-0.30,0.88,2.47,3.25,-0.38,29.00
79067,0.28,-0.31,0.87,3.13,1.61,0.58,29.05
79077,0.29,-0.31,0.87,3.22,1.80,0.87,29.05
79087,0.30,-0.30,0.87,4.41,3.24,0.93,29.00
79097,0.30,-0.29,0.88,6.23,4.92,1.12,29.00
79107,0.30,-0.28,0.87,7.57,4.76,0.34,29.09
79117,0.30,-0.26,0.86,8.63,3.84,-1.13,29.05
79127,0.30,-0.26,0.86,9.47,1.92,-2.09,29.05
79137,0.29,-0.25,0.83,10.25,0.96,-2.68,29.09
79147,0.28,-0.24,0.83,10.36,0.49,-2.56,29.00
79157,0.28,-0.23,0.81,9.56,2.65,-1.22,28.91
79167,0.28,-0.22,0.81,8.12,3.45,-1.05,28.95
79177,0.28,-0.22,0.81,7.36,4.01,-1.14,29.00
79187,0.28,-0.23,0.82,7.31,3.33,-2.01,29.00
79197,0.28,-0.23,0.80,5.50,3.18,-1.69,29.00
79207,0.28,-0.23,0.81,4.44,0.99,-2.12,29.05
79217,0.28,-0.23,0.81,3.16,0.73,-3.23,29.05
79227,0.27,-0.24,0.82,3.24,-0.49,-3.03,29.09
79237,0.26,-0.24,0.82,3.46,-2.12,-2.25,28.91
79247,0.26,-0.25,0.82,2.96,-2.92,-1.56,28.95
79257,0.26,-0.25,0.81,2.53,0.27,0.12,29.05
79267,0.27,-0.27,0.83,2.02,1.96,1.27,29.00
79277,0.26,-0.27,0.86,1.25,1.64,2.05,29.09
79287,0.27,-0.28,0.86,1.15,0.35,1.90,29.00
79297,0.27,-0.28,0.87,2.11,-1.66,0.82,29.05
79307,0.28,-0.28,0.87,4.26,-2.36,0.66,28.95
79317,0.29,-0.27,0.87,6.47,-2.58,-0.42,29.09
79327,0.29,-0.26,0.85,8.16,-1.95,-0.90,29.00
79337,0.27,-0.25,0.85,9.15,-2.33,-1.31,29.00
79347,0.27,-0.25,0.83,9.70,-2.68,-0.95,29.05
79357,0.28,-0.24,0.81,9.76,-3.30,-1.20,29.09
79367,0.28,-0.23,0.79,7.79,-2.18,-0.92,29.00
79377,0.28,-0.23,0.79,5.53,-1.92,-0.95,29.00
79387,0.27,-0.23,0.82,3.12,-3.86,-1.70,28.95
79397,0.27,-0.22,0.82,1.36,-6.47,-1.92,28.95
79407,0.27,-0.22,0.82,1.80,-7.61,-1.75,29.09
79417,0.29,-0.23,0.81,2.40,-6.75,-1.65,29.00
79427,0.29,-0.23,0.81,1.77,-2.53,-0.50,28.95
79437,0.29,-0.23,0.83,1.60,-0.79,-0.05,29.05
79447,0.30,-0.23,0.84,1.49,0.33,-0.11,29.00
79457,0.29,-0.23,0.84,1.32,1.72,-0.65,29.00
79467,0.29,-0.24,0.86,2.49,1.44,-1.34,29.05
79477,0.29,-0.24,0.87,4.56,-0.89,-2.56,29.05
79487,0.29,-0.25,0.86,5.19,-3.36,-3.63,29.00
79497,0.28,-0.24,0.85,5.28,-4.10,-4.58,29.00
79507,0.28,-0.23,0.84,4.93,-2.63,-5.14,28.91
79517,0.26,-0.22,0.84,3.97,-2.15,-5.82,28.95
79527,0.24,-0.22,0.84,2.27,-3.18,-6.18,29.05
79537,0.22,-0.21,0.84,2.54,-4.40,-3.73,29.00
79547,0.23,-0.22,0.84,4.60,-4.78,0.99,29.00
79557,0.27,-0.23,0.82,6.24,0.59,4.29,29.05
79567,0.30,-0.25,0.81,7.69,10.37,7.11,29.05
79577,0.30,-0.25,0.83,7.34,15.48,7.73,29.09
79587,0.30,-0.25,0.86,6.89,13.11,6.72,29.00
79597,0.31,-0.26,0.87,6.03,7.05,3.95,29.05
79607,0.32,-0.27,0.86,5.79,1.33,0.31,28.95
79617,0.32,-0.26,0.86,6.90,-1.89,-3.31,28.95
79627,0.31,-0.25,0.84,6.69,-5.38,-6.28,29.09
79637,0.30,-0.24,0.83,5.75,-6.94,-7.36,29.00
79647,0.30,-0.23,0.81,4.93,-5.86,-7.47,28.95
79657,0.29,-0.22,0.81,4.91,-2.90,-6.39,28.95
79667,0.28,-0.22,0.80,4.29,0.02,-4.87,29.00
79677,0.27,-0.22,0.81,2.96,1.18,-3.98,29.00
79687,0.27,-0.22,0.81,1.69,1.78,-3.21,29.00
79697,0.28,-0.23,0.82,-0.12,0.44,-3.33,28.95
79707,0.27,-0.24,0.83,-1.20,-1.30,-3.36,29.05
79717,0.27,-0.24,0.85,-1.64,-2.05,-3.05,29.00
79727,0.26,-0.24,0.85,-0.21,-2.56,-2.76,29.09
79737,0.28,-0.25,0.85,0.66,-1.73,-2.11,28.95
79747,0.28,-0.25,0.86,2.02,-0.82,-1.66,28.95
79757,0.29,-0.25,0.86,3.26,0.44,-1.85,29.00
79767,0.29,-0.26,0.85,4.34,0.91,-1.27,29.00
79777,0.29,-0.26,0.85,5.23,0.53,-1.74,29.14
79787,0.29,-0.26,0.84,5.63,0.19,-2.07,28.95
79797,0.30,-0.25,0.83,4.99,-0.49,-2.63,28.95
79807,0.30,-0.25,0.82,3.73,-0.37,-2.62,29.00
79817,0.28,-0.24,0.82,2.56,-0.53,-2.43,28.91
79827,0.28,-0.23,0.82,2.32,-1.24,-2.87,28.95
79837,0.28,-0.23,0.83,1.80,-1.34,-2.48,28.95
79847,0.27,-0.23,0.83,1.51,-2.65,-1.82,29.00
79857,0.26,-0.23,0.84,2.25,-3.24,-0.83,28.91
79867,0.27,-0.23,0.83,2.82,-2.47,0.46,29.00
79877,0.28,-0.24,0.82,2.92,0.08,1.96,28.95
79887,0.28,-0.24,0.83,2.50,1.17,2.58,29.09
79897,0.29,-0.24,0.85,2.29,0.92,2.11,29.00
79907,0.28,-0.25,0.85,2.38,-1.73,1.84,29.05
79917,0.29,-0.24,0.85,2.81,-3.29,1.14,28.95
79927,0.29,-0.24,0.84,4.02,-2.76,0.83,29.05
79937,0.28,-0.24,0.84,4.66,-0.99,1.26,29.00
79947,0.28,-0.23,0.84,4.92,0.11,1.49,29.00
79957,0.29,-0.24,0.83,4.69,1.21,1.49,28.95
79967,0.29,-0.23,0.83,3.89,2.83,1.38,28.95
79977,0.29,-0.23,0.85,3.81,2.15,0.69,29.00
79987,0.29,-0.23,0.84,3.82,-0.07,-0.31,29.00
79997,0.29,-0.22,0.84,3.82,-1.67,-0.79,29.05
80007,0.29,-0.22,0.84,4.69,-1.46,-0.99,28.95
80017,0.28,-0.22,0.82,5.02,-0.73,-0.39,28.95
80027,0.28,-0.23,0.82,4.41,1.02,0.24,29.09
80037,0.28,-0.22,0.82,3.05,3.33,0.45,29.00
80047,0.27,-0.23,0.83,1.90,3.31,0.49,29.00
80057,0.27,-0.22,0.85,1.13,1.27,0.15,28.95
80067,0.27,-0.22,0.85,1.35,-0.41,-0.37,29.00
80077,0.26,-0.22,0.85,2.17,-3.09,-0.29,29.00
80087,0.28,-0.22,0.83,2.91,-2.48,-0.27,29.05
80097,0.28,-0.22,0.83,3.49,0.27,0.27,29.05
80107,0.27,-0.22,0.84,3.31,1.17,1.20,28.95
80117,0.27,-0.22,0.84,2.42,0.21,1.50,29.00
80127,0.28,-0.23,0.83,2.19,0.95,1.61,28.91
80137,0.28,-0.22,0.84,3.17,1.79,1.97,29.05
80147,0.28,-0.23,0.83,3.91,3.23,2.58,29.14
80157,0.27,-0.23,0.85,4.34,3.98,2.76,29.00
80167,0.28,-0.23,0.84,4.29,3.53,2.21,29.00
80177,0.28,-0.24,0.85,4.10,3.34,2.07,29.05
80187,0.28,-0.23,0.84,4.14,2.94,1.92,29.05
80197,0.27,-0.24,0.84,4.43,2.28,1.27,29.05
80207,0.29,-0.24,0.83,4.25,1.72,0.67,29.09
80217,0.29,-0.24,0.83,3.90,1.44,0.05,28.91
80227,0.29,-0.24,0.83,3.74,1.45,-0.17,29.00
80237,0.28,-0.24,0.83,3.09,2.35,0.14,29.05
80247,0.28,-0.23,0.83,2.74,3.09,-0.11,29.00
80257,0.28,-0.24,0.83,1.80,2.74,-0.37,29.00
80267,0.27,-0.24,0.84,0.87,1.95,-0.39,29.00
80277,0.28,-0.24,0.83,0.47,1.70,-0.77,28.95
80287,0.27,-0.24,0.84,0.28,2.27,-0.77,29.05
80297,0.27,-0.25,0.84,-0.04,2.49,-0.84,29.09
80307,0.26,-0.24,0.85,-0.32,2.05,-1.13,29.00
80317,0.26,-0.24,0.85,-0.41,0.71,-1.21,29.05
80327,0.25,-0.24,0.86,0.47,-0.26,-0.63,29.05
80337,0.26,-0.24,0.87,1.18,-0.47,0.08,29.00
80347,0.27,-0.25,0.85,2.05,0.95,0.78,28.91
