Timestamp,Acce_X,Acce_Y,Acce_Z,Gyro_X,Gyro_Y,Gyro_Z,Temp
51417,0.12,-0.97,0.15,1.95,-7.56,3.91,32.06
51427,0.12,-0.95,0.16,0.64,-8.14,-0.06,32.06
51437,0.12,-0.92,0.17,0.53,-6.95,-3.05,32.06
51447,0.13,-0.89,0.17,0.18,-5.30,-5.97,32.06
51457,0.13,-0.87,0.17,-0.03,-3.94,-7.97,32.11
51467,0.12,-0.82,0.17,-0.14,-2.11,-9.60,32.15
51477,0.11,-0.78,0.16,-0.56,-0.64,-11.53,32.11
51487,0.09,-0.75,0.17,-1.27,0.23,-13.04,32.11
51497,0.05,-0.71,0.16,-2.26,0.58,-12.98,32.11
51507,0.04,-0.67,0.13,-4.08,2.43,-11.60,32.11
51517,0.02,-0.65,0.11,-6.34,4.85,-9.82,32.11
51527,0.01,-0.62,0.12,-8.03,6.66,-7.42,32.01
51537,0.02,-0.60,0.11,-9.53,7.01,-5.69,32.11
51547,0.03,-0.55,0.08,-10.38,7.50,-4.40,32.11
51557,0.04,-0.50,0.05,-13.05,7.53,-3.19,32.11
51567,0.04,-0.48,0.02,-16.20,7.91,-3.24,32.20
51577,0.03,-0.48,0.02,-20.09,4.89,-4.40,32.15
51587,0.03,-0.49,0.04,-24.55,0.78,-7.88,32.06
51597,0.02,-0.47,0.04,-28.41,-3.28,-11.51,32.06
51607,0.03,-0.46,0.02,-30.61,-5.16,-14.84,32.15
51617,0.03,-0.46,-0.02,-33.82,-1.88,-16.50,32.15
51627,0.02,-0.45,-0.02,-37.10,-2.15,-15.83,32.06
51637,0.01,-0.45,-0.07,-41.10,0.70,-12.85,32.06
51647,-0.02,-0.46,-0.12,-47.27,-0.78,-9.56,32.15
51657,-0.00,-0.50,-0.11,-54.58,-1.34,-3.77,32.15
51667,0.01,-0.54,-0.17,-66.63,-2.29,1.40,32.01
51677,0.04,-0.56,-0.24,-82.73,-0.24,6.64,32.06
51687,0.06,-0.60,-0.26,-100.05,4.75,10.44,32.11
51697,0.05,-0.66,-0.28,-113.91,11.25,12.75,32.11
51707,0.05,-0.67,-0.25,-132.21,7.27,15.94,32.11
51717,0.03,-0.70,-0.19,-142.58,-0.95,19.28,32.01
51727,0.03,-0.72,-0.15,-144.66,-8.53,18.99,32.11
51737,0.04,-0.75,-0.12,-139.63,-12.78,17.37,32.11
51747,0.06,-0.79,-0.09,-130.52,-13.60,14.02,32.11
51757,0.07,-0.83,-0.08,-117.02,-16.29,12.41,32.11
51767,0.06,-0.88,-0.08,-101.25,-15.36,12.95,32.11
51777,0.03,-0.94,-0.09,-88.52,-14.82,14.49,32.01
51787,0.04,-1.00,-0.10,-77.40,-12.37,15.42,32.11
51797,0.04,-1.05,-0.11,-68.21,-10.05,12.18,32.11
51807,0.05,-1.09,-0.09,-59.37,-12.24,6.63,32.15
51817,0.06,-1.11,-0.07,-50.76,-17.56,-1.21,31.97
51827,0.07,-1.12,-0.09,-42.38,-24.03,-9.04,32.15
51837,0.09,-1.12,-0.13,-37.40,-26.61,-15.27,32.06
51847,0.08,-1.12,-0.14,-36.56,-27.77,-19.11,32.06
51857,0.08,-1.13,-0.18,-38.09,-28.52,-21.62,32.06
51867,0.11,-1.12,-0.18,-40.47,-29.01,-24.11,32.15
51877,0.12,-1.12,-0.15,-36.63,-29.62,-25.24,32.11
51887,0.11,-1.15,-0.14,-27.33,-28.18,-25.50,32.06
51897,0.10,-1.17,-0.12,-16.98,-26.38,-24.23,32.06
51907,0.09,-1.20,-0.14,-8.56,-26.17,-21.02,32.06
51917,0.06,-1.19,-0.16,-0.67,-23.91,-13.33,32.01
51927,0.07,-1.14,-0.25,2.98,-17.88,-0.90,32.11
51937,0.09,-1.07,-0.33,2.03,-5.01,14.32,32.01
51947,0.15,-1.00,-0.42,-3.91,10.35,28.49,32.01
51957,0.24,-0.96,-0.45,-14.32,19.53,36.90,32.11
51967,0.31,-0.96,-0.52,-26.38,28.81,33.54,32.01
51977,0.34,-0.95,-0.49,-40.23,27.94,23.45,32.01
51987,0.32,-0.96,-0.46,-51.02,22.87,7.88,32.11
51997,0.27,-0.99,-0.41,-57.50,11.80,-7.45,32.11
52007,0.18,-1.03,-0.37,-60.49,-3.02,-19.01,32.01
52017,0.14,-1.06,-0.37,-61.82,-12.73,-24.81,32.01
52027,0.09,-1.05,-0.37,-60.38,-15.80,-25.48,32.06
52037,0.11,-1.07,-0.39,-56.69,-11.36,-24.46,32.06
52047,0.10,-1.11,-0.37,-53.83,-4.56,-22.38,32.06
52057,0.06,-1.15,-0.33,-52.96,-4.56,-19.83,32.06
52067,0.05,-1.17,-0.25,-51.01,-5.66,-19.91,32.06
52077,0.04,-1.17,-0.19,-43.86,-10.53,-20.87,32.06
52087,0.03,-1.16,-0.18,-34.60,-18.44,-22.31,32.15
52097,0.05,-1.16,-0.24,-26.49,-25.69,-22.69,32.06
52107,0.06,-1.14,-0.28,-20.05,-30.64,-20.58,32.06
52117,0.08,-1.12,-0.30,-10.49,-32.78,-18.08,31.97
52127,0.11,-1.14,-0.35,3.92,-29.25,-15.68,32.01
52137,0.15,-1.15,-0.41,15.66,-25.95,-13.74,32.11
52147,0.20,-1.13,-0.45,15.65,-29.25,-12.89,32.01
52157,0.19,-1.14,-0.47,12.76,-23.56,-14.78,32.01
52167,0.24,-1.11,-0.48,15.08,-27.82,-14.75,32.01
52177,0.23,-1.09,-0.47,13.97,-27.80,-13.91,32.01
52187,0.26,-1.12,-0.50,10.95,-14.12,-11.82,31.92
52197,0.15,-1.14,-0.43,12.60,-12.31,-6.76,32.01
52207,0.18,-1.16,-0.41,13.44,-8.24,0.96,31.92
52217,0.21,-1.21,-0.38,20.12,-2.21,6.43,32.06
52227,0.23,-1.27,-0.34,27.59,-8.34,11.31,32.06
52237,0.22,-1.32,-0.25,45.21,-10.23,12.44,32.06
52247,0.28,-1.37,-0.28,60.95,-1.62,16.12,31.97
52257,0.30,-1.34,-0.31,63.57,15.13,16.70,32.06
52267,0.31,-1.31,-0.33,62.37,28.06,15.62,32.06
52277,0.30,-1.23,-0.37,51.04,39.31,13.62,31.97
52287,0.27,-1.19,-0.38,43.50,42.79,11.18,31.97
52297,0.29,-1.20,-0.28,44.12,50.06,10.15,32.01
52307,0.22,-1.20,-0.24,44.96,47.24,13.92,32.01
52317,0.16,-1.23,-0.17,58.58,52.35,17.01,32.01
52327,0.13,-1.25,-0.11,80.17,58.64,20.92,32.01
52337,0.09,-1.23,-0.14,92.70,64.67,22.93,32.01
52347,0.02,-1.18,-0.11,93.76,71.27,26.06,32.11
52357,0.00,-1.14,-0.19,76.95,64.24,22.81,32.01
52367,-0.03,-1.08,-0.22,52.20,50.47,18.67,32.01
52377,-0.09,-1.04,-0.16,35.47,33.30,15.28,32.06
52387,-0.16,-1.02,-0.08,25.60,13.85,17.54,32.15
52397,-0.13,-1.05,-0.07,25.51,5.37,23.68,32.06
52407,-0.12,-1.10,0.00,33.97,-3.94,34.66,32.06
52417,-0.04,-1.15,0.04,47.28,-7.62,44.21,31.97
52427,0.01,-1.19,0.02,53.76,-14.32,50.90,32.06
52437,0.01,-1.10,-0.08,48.69,-12.17,43.60,31.97
52447,0.13,-1.10,-0.12,30.67,-18.79,30.95,31.97
52457,0.19,-1.05,-0.22,3.54,-28.61,17.71,31.97
52467,0.26,-1.01,-0.22,-20.08,-32.64,8.93,32.11
52477,0.24,-1.00,-0.23,-36.69,-30.96,5.86,32.01
52487,0.22,-1.10,-0.13,-35.56,-16.73,6.11,32.01
52497,0.18,-1.16,-0.07,-24.15,1.65,12.40,32.01
52507,0.10,-1.22,0.03,-7.45,17.30,20.87,32.01
52517,0.04,-1.26,0.18,12.95,19.88,27.39,32.01
52527,-0.00,-1.25,0.14,28.41,15.13,28.40,32.01
52537,-0.02,-1.23,0.13,37.45,-6.43,23.57,31.92
52547,0.03,-1.26,0.20,49.77,-24.46,14.79,32.11
52557,0.06,-1.26,0.11,54.44,-48.09,0.90,32.01
52567,0.06,-1.18,-0.03,49.36,-58.99,-6.27,32.06
52577,-0.02,-1.09,-0.06,37.04,-63.05,-8.55,32.06
52587,-0.05,-1.03,-0.13,28.29,-59.34,-4.87,32.06
52597,-0.05,-1.00,-0.15,19.54,-48.52,-0.89,32.06
52607,-0.02,-1.03,-0.13,11.51,-36.82,1.42,32.06
52617,0.03,-1.05,-0.10,4.98,-25.76,0.90,31.97
52627,0.03,-1.10,-0.06,-0.17,-18.12,-0.02,32.06
52637,0.03,-1.13,-0.06,-6.20,-14.05,-1.69,32.01
52647,0.02,-1.13,-0.07,-12.05,-4.40,-1.77,32.06
52657,0.01,-1.13,-0.05,-16.03,3.27,-0.82,32.01
52667,-0.00,-1.11,-0.03,-11.59,6.17,1.22,32.11
52677,-0.04,-1.07,-0.08,-12.27,10.40,0.96,31.92
52687,-0.03,-1.04,-0.05,-14.81,9.33,-0.09,32.01
52697,-0.01,-1.06,-0.03,-15.27,2.61,-2.00,32.11
52707,-0.01,-1.07,-0.02,-16.52,-4.82,-3.04,32.01
52717,-0.01,-1.07,0.01,-15.62,-12.41,-2.03,32.01
52727,0.03,-1.05,-0.00,-16.15,-12.34,-1.48,32.01
52737,0.06,-1.05,-0.00,-18.52,-6.21,-0.93,31.97
52747,0.05,-1.07,0.00,-20.05,-0.18,-1.31,31.97
52757,0.03,-1.08,0.02,-23.18,5.59,-2.17,31.97
52767,0.01,-1.09,0.03,-25.56,8.37,-2.63,32.06
52777,-0.00,-1.09,0.02,-26.11,6.41,-3.82,31.97
52787,0.01,-1.11,0.01,-24.66,3.74,-4.43,31.97
52797,-0.02,-1.09,-0.02,-25.97,-3.63,-4.08,32.06
52807,0.08,-1.16,-0.09,-23.74,6.81,-5.86,31.92
52817,0.15,-1.25,-0.05,-21.04,15.66,-10.67,31.97
52827,0.22,-1.34,-0.01,-19.37,28.02,-20.44,32.06
52837,0.22,-1.36,0.07,-10.67,33.69,-31.82,32.01
52847,0.14,-1.33,0.12,5.18,27.30,-37.44,32.01
52857,0.11,-1.25,0.01,14.53,27.68,-35.98,32.01
52867,0.09,-1.19,-0.01,18.60,23.62,-30.67,32.01
52877,0.12,-1.20,-0.09,23.24,19.56,-26.41,32.01
52887,0.18,-1.24,-0.11,18.08,19.65,-28.23,32.11
52897,0.13,-1.19,-0.03,3.79,-5.37,-28.55,32.01
52907,0.23,-1.20,-0.16,-1.63,-0.89,-37.33,32.01
52917,0.12,-1.23,-0.18,-4.96,-17.28,-37.88,32.01
52927,0.27,-1.23,-0.31,-26.58,-8.93,-41.57,31.97
52937,0.27,-1.27,-0.24,-37.25,-1.37,-42.41,31.97
52947,0.34,-1.23,-0.21,-51.92,12.31,-42.29,31.87
52957,0.24,-1.29,-0.23,-50.00,6.49,-42.73,31.97
52967,0.20,-1.25,-0.25,-51.24,15.27,-41.36,31.97
52977,0.16,-1.22,-0.22,-50.44,29.66,-37.66,31.97
52987,0.04,-1.22,-0.18,-46.43,39.30,-25.91,31.97
52997,-0.03,-1.20,-0.08,-30.14,49.34,-9.04,31.97
53007,-0.06,-1.23,-0.03,-6.37,53.51,5.94,31.97
53017,-0.10,-1.21,0.00,15.88,49.74,16.23,32.01
53027,-0.08,-1.17,-0.05,30.34,47.44,17.91,32.01
53037,-0.04,-1.16,-0.11,28.46,36.08,16.47,32.01
53047,-0.03,-1.15,-0.12,17.74,34.99,11.62,32.01
53057,-0.05,-1.10,-0.12,5.28,28.53,5.86,32.01
53067,-0.02,-1.11,-0.08,-4.03,29.82,1.15,32.01
53077,-0.18,-0.98,-0.09,-11.50,1.40,8.63,32.01
53087,-0.11,-0.97,-0.15,-14.70,-1.57,3.65,32.01
53097,-0.02,-1.04,-0.14,-12.17,-5.71,6.98,32.01
53107,-0.02,-1.04,-0.15,-12.40,-10.32,10.75,32.11
53117,0.04,-1.08,-0.12,-6.55,-3.44,14.82,32.11
53127,0.16,-1.19,-0.08,3.53,18.85,17.56,32.01
53137,0.23,-1.29,0.00,11.33,32.15,14.06,31.97
53147,0.23,-1.34,0.07,20.72,40.31,4.26,32.06
53157,0.16,-1.33,0.14,31.48,38.90,-9.02,32.15
53167,0.13,-1.32,0.12,45.76,30.44,-15.40,31.97
53177,0.08,-1.27,0.06,57.48,18.52,-16.35,31.97
53187,0.08,-1.18,0.01,54.96,12.47,-13.40,32.06
53197,-0.01,-1.08,0.01,52.90,10.85,-7.05,31.97
53207,0.17,-1.04,-0.18,24.49,9.13,-10.67,31.97
53217,0.20,-1.08,-0.12,23.13,-1.42,-9.08,31.97
53227,0.33,-1.06,-0.24,13.18,-5.54,-1.69,32.11
53237,0.37,-1.07,-0.22,-1.10,7.74,5.77,32.01
53247,0.40,-1.10,-0.20,-13.50,28.70,11.98,32.01
53257,0.35,-1.18,-0.07,-10.31,39.85,16.76,32.11
53267,0.33,-1.23,0.03,-1.62,45.36,18.85,31.92
53277,0.27,-1.26,0.10,10.60,46.17,20.08,32.01
53287,0.21,-1.27,0.15,21.51,39.86,21.47,32.01
53297,0.18,-1.26,0.12,30.61,33.08,21.54,32.01
53307,0.17,-1.24,0.06,37.27,28.50,20.26,32.01
53317,0.16,-1.20,0.00,40.15,25.18,19.31,32.01
53327,0.13,-1.15,-0.04,38.37,23.68,18.72,32.01
53337,0.10,-1.12,-0.09,30.15,23.62,16.56,32.01
53347,0.05,-1.11,-0.09,20.72,19.48,13.92,32.11
53357,0.00,-1.09,-0.08,11.53,11.85,12.52,32.06
53367,-0.05,-1.07,-0.11,5.73,-2.20,13.77,31.97
53377,-0.04,-1.04,-0.15,0.40,-10.89,19.24,31.97
53387,0.00,-1.02,-0.21,-6.82,-12.20,26.92,31.97
53397,0.05,-1.01,-0.19,-12.81,-5.47,35.05,32.06
53407,0.10,-0.99,-0.19,-12.49,6.98,43.21,31.97
53417,0.11,-1.00,-0.19,-9.19,24.46,47.73,32.06
53427,0.11,-1.01,-0.14,-5.47,36.63,47.86,31.97
53437,0.08,-1.02,-0.09,-3.18,41.50,43.69,31.97
53447,0.05,-1.02,-0.06,-1.50,36.73,36.58,31.97
53457,0.04,-1.02,-0.04,-1.91,27.33,26.23,31.97
53467,0.04,-1.01,-0.07,-4.76,13.16,13.22,31.97
53477,0.05,-1.04,-0.10,-8.24,-3.19,-0.43,32.01
53487,0.09,-1.06,-0.12,-17.88,-14.70,-12.35,32.11
53497,0.08,-1.06,-0.11,-28.81,-19.27,-17.21,32.11
53507,0.07,-1.06,-0.10,-32.09,-14.64,-16.85,32.01
53517,0.05,-1.05,-0.09,-29.83,-6.08,-12.46,32.01
53527,0.05,-1.05,-0.07,-24.18,4.61,-5.48,32.01
53537,0.04,-1.05,0.01,-16.46,8.20,0.08,32.01
53547,0.06,-1.06,0.04,-10.18,9.66,1.40,32.01
53557,0.10,-1.04,0.05,-1.36,9.73,2.12,32.01
53567,0.11,-1.02,0.02,7.39,10.69,2.02,31.92
53577,0.13,-0.99,-0.02,12.63,12.85,2.18,32.01
53587,0.12,-0.96,-0.07,11.86,13.07,1.47,32.01
53597,0.12,-0.96,-0.09,7.73,11.11,0.26,31.92
53607,0.13,-0.97,-0.10,2.69,10.15,-0.43,31.97
53617,0.15,-0.97,-0.09,-3.19,9.56,-1.97,31.97
53627,0.16,-0.98,-0.07,-11.88,10.55,-5.16,31.97
53637,0.15,-1.01,-0.02,-16.69,8.17,-10.72,32.06
53647,0.16,-1.04,0.04,-18.40,7.79,-16.41,31.97
53657,0.17,-1.04,0.07,-17.27,9.57,-22.84,31.97
53667,0.19,-1.03,0.11,-12.95,11.95,-28.35,31.97
53677,0.18,-1.02,0.14,-6.76,13.79,-32.29,31.97
53687,0.18,-0.99,0.13,1.11,13.56,-34.29,32.01
53697,0.14,-0.96,0.10,7.30,13.79,-35.05,31.97
53707,0.10,-0.92,0.06,10.84,15.30,-31.92,31.97
53717,0.06,-0.91,0.01,11.82,17.56,-25.22,32.06
53727,0.01,-0.90,0.01,10.75,17.51,-17.56,32.11
53737,-0.02,-0.89,0.02,8.84,16.20,-9.36,32.01
53747,-0.01,-0.89,0.02,8.69,14.17,-2.02,32.01
53757,-0.02,-0.89,0.06,11.21,13.50,5.42,32.01
53767,-0.01,-0.89,0.06,13.68,11.37,11.79,31.92
53777,0.01,-0.91,0.08,18.31,11.45,16.67,32.01
53787,0.03,-0.94,0.07,24.02,10.81,19.62,32.01
53797,0.17,-0.95,0.07,30.55,13.07,21.11,32.01
53807,0.07,-0.95,0.09,35.62,7.98,21.57,32.01
53817,0.09,-0.95,0.08,41.83,11.36,20.79,31.92
53827,0.09,-0.92,0.05,45.86,12.75,18.89,32.01
53837,0.08,-0.92,0.03,48.03,12.49,16.66,31.97
53847,0.05,-0.91,0.00,46.96,9.76,15.05,31.97
53857,0.04,-0.89,0.01,43.56,7.59,14.49,31.97
53867,0.04,-0.87,0.01,40.34,6.34,13.80,32.06
53877,0.07,-0.85,0.03,39.33,6.21,12.53,31.97
53887,0.11,-0.79,0.05,37.54,5.07,10.15,31.97
53897,0.15,-0.75,0.05,36.15,3.66,5.91,31.97
53907,0.21,-0.71,0.03,33.39,7.27,0.76,32.06
53917,0.22,-0.63,0.05,24.43,10.35,-2.47,32.06
53927,0.19,-0.57,0.04,13.31,13.15,-2.32,31.97
53937,0.11,-0.60,0.03,2.84,15.34,-1.89,31.92
53947,0.03,-0.64,0.02,-6.05,22.58,-2.12,31.97
53957,-0.08,-0.69,0.09,-15.63,27.10,-2.32,32.01
53967,-0.15,-0.83,0.12,-21.48,23.82,-4.92,31.92
53977,-0.23,-0.92,0.17,-30.67,19.89,-7.13,32.01
53987,-0.25,-1.00,0.25,-34.55,11.56,-9.60,32.01
53997,-0.21,-1.02,0.30,-32.03,4.52,-9.95,32.01
54007,-0.16,-1.00,0.31,-22.53,0.93,-8.35,32.01
54017,-0.10,-0.97,0.32,-7.59,1.24,-5.36,32.01
54027,-0.05,-0.95,0.29,8.99,1.82,-1.62,32.01
54037,0.00,-0.91,0.26,25.47,1.30,2.21,32.01
54047,0.05,-0.84,0.20,39.21,1.15,4.82,32.01
54057,0.08,-0.78,0.15,49.25,0.73,7.28,32.01
54067,0.09,-0.70,0.08,52.76,-0.15,8.53,31.97
54077,0.08,-0.65,0.03,52.67,-0.09,10.72,31.97
54087,0.08,-0.64,-0.01,48.26,0.96,13.36,32.06
54097,0.07,-0.66,-0.06,39.76,2.70,14.56,31.97
54107,0.05,-0.70,-0.04,28.79,2.03,15.08,31.97
54117,0.06,-0.75,-0.03,18.95,0.44,13.59,31.97
54127,0.09,-0.80,0.00,8.98,1.77,9.51,31.97
54137,0.10,-0.86,0.04,-1.10,4.50,3.16,31.97
54147,0.09,-0.90,0.07,-9.48,6.08,-3.39,31.92
54157,0.08,-0.94,0.12,-14.69,6.38,-9.22,31.87
54167,0.07,-0.96,0.18,-18.61,4.38,-12.44,32.06
54177,0.05,-0.99,0.22,-21.25,2.37,-13.25,31.97
54187,0.05,-1.01,0.25,-19.94,2.02,-13.11,31.92
54197,0.04,-1.02,0.28,-15.42,2.96,-12.24,32.01
54207,0.01,-1.02,0.29,-9.27,3.11,-9.71,32.01
54217,-0.00,-1.02,0.29,-2.69,3.39,-5.97,31.92
54227,-0.00,-1.02,0.27,3.71,4.70,-1.65,32.11
54237,-0.01,-1.00,0.26,9.47,4.32,2.24,32.01
54247,-0.01,-0.98,0.23,11.13,4.99,6.66,32.01
54257,-0.01,-0.96,0.20,11.19,4.03,11.36,32.01
54267,0.01,-0.96,0.18,10.53,3.91,15.92,32.01
54277,0.02,-0.96,0.15,10.09,4.90,18.05,32.01
54287,0.04,-0.99,0.16,7.91,5.54,18.17,32.01
54297,0.04,-1.00,0.13,3.71,4.84,15.86,32.06
54307,0.05,-1.00,0.15,-2.53,3.98,11.92,32.06
54317,0.06,-1.01,0.16,-6.56,3.05,7.01,31.97
54327,0.05,-1.01,0.17,-9.97,2.95,1.65,31.97
54337,0.06,-1.02,0.18,-13.57,1.27,-3.34,31.97
54347,0.06,-1.01,0.21,-16.26,0.20,-6.27,32.06
54357,0.04,-1.00,0.22,-16.56,0.31,-7.79,31.97
54367,0.04,-1.01,0.23,-14.49,1.56,-8.21,32.06
54377,0.04,-1.01,0.24,-11.88,2.52,-8.76,32.06
54387,0.03,-1.03,0.24,-8.92,2.81,-9.66,32.06
54397,0.02,-1.02,0.24,-6.18,1.27,-10.29,31.92
54407,0.01,-1.01,0.24,-3.33,-0.38,-9.79,32.06
54417,0.00,-0.99,0.21,-1.73,-1.04,-7.63,32.01
54427,-0.01,-0.97,0.19,-0.63,-0.47,-3.48,32.01
54437,0.00,-0.96,0.18,0.41,0.29,1.18,32.11
54447,0.01,-0.95,0.17,0.69,1.56,5.77,32.11
54457,0.03,-0.95,0.17,0.49,1.91,8.46,31.92
54467,0.04,-0.96,0.17,-0.29,2.60,9.25,32.01
54477,0.05,-0.98,0.17,-1.31,1.92,8.40,32.01
54487,0.06,-1.00,0.17,-3.34,2.09,5.21,32.01
54497,0.07,-1.03,0.17,-7.47,1.22,0.75,32.01
54507,0.06,-1.04,0.18,-10.21,0.11,-3.21,32.11
54517,0.05,-1.05,0.18,-12.21,-0.52,-6.11,32.01
54527,0.04,-1.06,0.20,-12.73,-1.13,-8.00,32.01
54537,0.04,-1.07,0.21,-11.91,-1.73,-8.47,31.92
54547,0.04,-1.07,0.21,-10.29,-2.11,-7.82,32.11
54557,0.03,-1.07,0.21,-7.71,-2.78,-7.02,32.01
54567,0.03,-1.05,0.20,-4.92,-2.98,-5.07,31.97
54577,0.03,-1.04,0.20,-2.55,-1.68,-2.52,31.97
54587,0.05,-1.04,0.18,-1.65,0.43,0.05,31.97
54597,0.06,-1.02,0.17,-1.54,2.05,1.91,32.06
54607,0.07,-1.02,0.18,-1.48,2.58,1.48,32.06
54617,0.07,-1.03,0.18,-1.92,1.18,-0.06,31.97
54627,0.09,-1.02,0.17,-3.27,-0.52,-2.38,31.97
54637,0.09,-1.00,0.17,-4.84,-0.81,-4.50,32.15
54647,0.09,-1.00,0.16,-5.47,0.26,-5.42,32.01
54657,0.07,-1.00,0.16,-5.92,1.25,-5.97,32.06
54667,0.06,-1.00,0.16,-6.41,1.18,-5.86,31.87
54677,0.06,-1.01,0.15,-7.05,1.48,-5.53,31.97
54687,0.05,-1.00,0.18,-7.53,0.89,-4.81,32.01
54697,0.05,-1.01,0.18,-6.82,0.15,-4.40,32.01
54707,0.05,-1.02,0.18,-6.00,-0.18,-4.95,32.11
54717,0.06,-1.01,0.18,-5.37,-0.98,-5.39,31.92
54727,0.06,-1.00,0.18,-5.10,-1.28,-5.73,32.01
54737,0.06,-0.99,0.17,-4.70,-1.56,-4.78,32.01
54747,0.06,-0.97,0.15,-5.01,-1.94,-3.04,32.01
54757,0.07,-0.98,0.14,-5.59,-1.97,-1.39,32.01
54767,0.08,-0.98,0.15,-7.05,-1.44,-0.52,32.01
54777,0.08,-0.98,0.15,-8.49,-0.98,0.11,32.11
54787,0.08,-0.99,0.16,-9.48,-0.08,0.63,32.01
54797,0.07,-1.00,0.15,-9.79,0.40,0.76,32.11
54807,0.08,-1.00,0.16,-10.14,0.08,0.56,32.01
54817,0.08,-1.02,0.17,-9.89,-1.36,0.73,32.06
54827,0.07,-1.03,0.15,-9.50,-2.81,0.82,32.06
54837,0.08,-1.04,0.16,-10.11,-1.63,1.66,32.06
54847,0.08,-1.05,0.16,-9.83,-0.52,2.24,32.06
54857,0.08,-1.06,0.17,-8.99,0.58,2.41,31.97
54867,0.08,-1.07,0.18,-8.09,0.37,2.40,32.06
54877,0.07,-1.07,0.18,-7.40,-0.21,2.49,32.06
54887,0.08,-1.07,0.18,-6.60,0.09,2.21,31.97
54897,0.08,-1.06,0.18,-5.57,0.23,2.35,32.01
54907,0.09,-1.06,0.19,-5.11,0.92,2.06,31.97
54917,0.10,-1.05,0.19,-4.93,1.85,1.68,32.06
54927,0.10,-1.04,0.17,-4.98,2.89,0.52,31.97
54937,0.09,-1.03,0.17,-4.53,1.31,-0.58,32.11
54947,0.09,-1.01,0.16,-6.03,1.15,-1.01,32.01
54957,0.08,-1.00,0.17,-7.04,-0.56,-1.25,32.01
54967,0.08,-1.00,0.16,-7.47,-0.55,-1.13,32.01
54977,0.08,-0.99,0.15,-7.16,-1.08,-0.37,32.01
54987,0.08,-1.00,0.15,-6.67,-0.53,0.84,32.01
54997,0.09,-1.00,0.15,-6.49,1.42,1.76,32.11
55007,0.09,-1.01,0.15,-6.14,2.63,2.58,32.01
55017,0.09,-1.00,0.14,-6.38,2.46,3.85,32.01
55027,0.09,-1.01,0.14,-7.13,2.40,4.58,32.01
55037,0.09,-1.01,0.14,-6.79,2.20,4.29,32.01
55047,0.09,-1.02,0.14,-6.87,2.43,3.77,31.92
55057,0.09,-1.02,0.14,-6.69,2.37,3.16,32.15
55067,0.09,-1.01,0.12,-6.21,2.47,2.93,32.06
55077,0.08,-1.02,0.12,-6.26,3.33,2.43,31.97
55087,0.08,-1.04,0.11,-6.15,3.18,1.82,32.06
55097,0.09,-1.04,0.12,-6.17,3.73,1.02,32.06
55107,0.08,-1.04,0.11,-6.50,3.79,0.78,31.97
55117,0.09,-1.04,0.12,-6.61,4.21,-0.14,32.06
55127,0.08,-1.03,0.11,-7.65,4.75,-0.55,31.97
55137,0.07,-1.04,0.12,-8.89,4.60,-0.92,32.06
55147,0.07,-1.03,0.13,-9.56,4.38,-0.79,31.92
55157,0.06,-1.04,0.15,-9.60,4.89,-0.96,32.06
55167,0.05,-1.05,0.16,-9.13,5.15,-1.37,31.97
55177,0.04,-1.06,0.17,-8.14,5.30,-1.97,32.06
55187,0.04,-1.07,0.19,-7.01,4.18,-2.46,32.01
55197,0.04,-1.05,0.19,-6.09,3.82,-3.31,32.01
55207,0.04,-1.05,0.18,-5.34,4.29,-3.76,32.01
55217,0.04,-1.03,0.17,-4.75,3.80,-3.66,32.01
55227,0.03,-1.02,0.18,-5.13,3.95,-3.40,31.92
55237,0.04,-1.01,0.18,-6.29,4.38,-2.58,31.92
55247,0.03,-1.00,0.17,-7.83,4.72,-2.20,32.01
55257,0.03,-1.00,0.18,-9.24,3.65,-2.06,31.92
55267,0.03,-1.00,0.20,-9.76,2.05,-2.26,31.92
55277,0.03,-0.99,0.18,-9.69,-0.12,-2.76,31.92
55287,0.03,-1.01,0.16,-9.21,-0.49,-2.47,32.11
55297,-0.02,-1.03,0.15,-5.45,-7.80,-0.85,31.92
55307,0.01,-1.01,0.18,-8.02,-1.51,-0.05,32.01
55317,0.04,-1.01,0.14,-8.11,-0.03,1.04,31.97
55327,0.04,-1.00,0.14,-6.76,-1.07,1.77,32.06
55337,0.06,-1.01,0.14,-6.02,-1.91,2.18,31.97
55347,0.08,-1.00,0.13,-6.03,-2.90,2.21,31.97
55357,0.10,-0.98,0.10,-7.24,-2.99,2.02,32.06
55367,0.11,-0.99,0.10,-7.11,-0.69,1.37,31.97
55377,0.10,-1.00,0.10,-7.08,-2.43,0.06,32.06
55387,0.10,-1.00,0.08,-8.20,-3.60,-1.05,31.97
55397,0.09,-1.01,0.09,-8.76,-2.43,-1.19,32.01
55407,0.09,-1.01,0.08,-8.20,-2.61,-1.33,31.97
55417,0.10,-1.01,0.07,-9.45,-1.68,-0.84,32.06
55427,0.10,-1.01,0.06,-10.12,-0.15,0.32,32.06
55437,0.11,-1.02,0.07,-10.56,1.54,0.67,32.01
55447,0.10,-1.03,0.08,-11.25,1.63,1.22,32.01
55457,0.10,-1.04,0.10,-11.56,1.79,1.05,32.01
55467,0.10,-1.06,0.10,-11.10,2.67,0.37,32.01
55477,0.09,-1.08,0.12,-11.04,3.34,-0.21,32.01
55487,0.08,-1.10,0.14,-11.02,2.93,-1.30,31.92
55497,0.06,-1.11,0.15,-11.13,2.75,-2.06,32.01
55507,0.05,-1.11,0.17,-10.82,2.93,-2.67,32.01
55517,0.04,-1.12,0.19,-10.31,2.35,-3.40,32.01
55527,0.03,-1.13,0.19,-9.76,1.18,-4.27,32.01
55537,0.03,-1.12,0.20,-8.64,0.20,-5.21,32.01
55547,0.03,-1.11,0.20,-6.84,-0.26,-5.95,31.92
55557,0.04,-1.10,0.20,-5.18,-0.24,-7.13,32.01
55567,0.05,-1.08,0.21,-3.10,-2.02,-7.69,31.92
55577,0.06,-1.05,0.20,-1.27,-1.63,-8.20,31.97
55587,0.06,-1.03,0.19,1.18,-1.77,-8.00,32.15
55597,0.06,-1.00,0.16,0.96,0.40,-7.97,32.06
55607,0.06,-0.97,0.12,2.37,-2.99,-7.83,32.06
55617,0.08,-0.96,0.09,0.81,-1.69,-6.21,31.97
55627,0.08,-0.96,0.08,-2.14,0.67,-4.70,31.87
55637,0.04,-0.93,0.12,-5.73,-0.67,-2.84,31.97
55647,0.07,-0.95,0.06,-6.26,-3.44,-2.63,31.97
55657,0.08,-0.94,0.05,-8.90,-3.16,-1.05,31.97
55667,0.10,-0.94,0.07,-9.19,-1.22,0.61,31.97
55677,0.12,-0.96,0.08,-9.10,0.43,1.39,32.06
55687,0.13,-0.96,0.08,-9.19,1.16,1.98,32.01
55697,0.13,-0.97,0.10,-9.27,2.24,1.51,32.06
55707,0.12,-0.98,0.09,-9.45,2.92,0.06,32.01
55717,0.11,-0.98,0.09,-10.34,2.90,-0.58,32.01
55727,0.10,-0.99,0.09,-11.40,2.20,-1.10,32.01
55737,0.09,-1.01,0.09,-12.27,0.61,-1.74,32.01
55747,0.08,-1.01,0.08,-13.82,-0.05,-1.85,32.01
55757,0.08,-1.02,0.08,-14.82,-0.95,-0.84,32.01
55767,0.08,-1.03,0.09,-15.07,-0.90,0.90,32.01
55777,0.09,-1.05,0.10,-14.61,-0.47,2.98,32.01
55787,0.09,-1.08,0.11,-13.45,0.38,4.24,32.01
55797,0.10,-1.10,0.11,-11.92,1.31,4.90,32.01
55807,0.11,-1.10,0.11,-9.89,1.50,4.76,32.01
55817,0.11,-1.12,0.10,-8.92,1.92,4.37,32.01
55827,0.11,-1.12,0.08,-7.88,2.89,3.85,32.01
55837,0.11,-1.13,0.09,-7.47,3.80,2.93,31.97
55847,0.10,-1.14,0.09,-7.05,3.95,1.39,31.97
55857,0.10,-1.14,0.10,-7.31,3.45,0.12,32.06
55867,0.10,-1.13,0.12,-6.35,2.90,-1.57,31.87
55877,0.09,-1.12,0.11,-4.41,3.48,-3.19,31.97
55887,0.09,-1.10,0.10,-3.33,3.33,-3.56,31.97
55897,0.08,-1.08,0.09,-3.02,-2.06,-1.19,31.97
55907,0.08,-1.05,0.10,-3.31,3.28,-1.45,31.97
55917,0.09,-1.05,0.09,-3.42,3.37,-0.52,31.97
55927,0.09,-1.05,0.11,-3.54,6.60,0.06,32.06
55937,0.07,-1.04,0.12,-2.44,5.34,0.44,32.11
55947,0.09,-1.03,0.11,-1.68,5.44,0.14,32.01
55957,0.09,-1.03,0.10,-0.75,4.75,-1.47,32.01
55967,0.09,-1.02,0.10,0.06,4.37,-3.37,32.01
55977,0.08,-1.01,0.10,0.96,4.12,-4.66,32.11
55987,0.07,-1.00,0.07,0.75,5.27,-4.69,32.01
55997,0.06,-0.98,0.05,0.26,5.51,-3.92,32.01
56007,0.06,-0.97,0.05,-1.60,4.32,-2.38,32.01
56017,0.07,-0.98,0.06,-3.56,2.85,-1.54,32.01
56027,0.07,-0.98,0.06,-3.98,1.79,-1.15,32.01
56037,0.08,-0.98,0.07,-3.97,1.68,-0.84,31.92
56047,0.09,-0.99,0.08,-3.30,1.11,-1.16,31.92
56057,0.09,-0.99,0.07,-2.79,0.27,-1.94,32.06
56067,0.09,-0.98,0.06,-3.16,-0.49,-2.53,32.06
56077,0.09,-0.98,0.04,-3.31,-0.29,-2.35,32.06
56087,0.09,-0.98,0.03,-4.12,0.56,-1.66,31.97
56097,0.09,-0.97,0.01,-5.69,1.47,-0.66,32.06
56107,0.10,-0.98,0.02,-7.53,1.83,0.40,31.97
56117,0.09,-0.99,0.02,-9.88,2.75,1.24,32.06
56127,0.10,-1.00,0.04,-11.42,2.49,1.97,31.97
56137,0.10,-1.03,0.06,-12.67,2.96,2.32,32.06
56147,0.10,-1.04,0.08,-13.07,3.54,1.73,32.01
56157,0.09,-1.05,0.10,-12.63,4.12,1.36,32.01
56167,0.08,-1.07,0.11,-11.79,4.29,0.93,32.01
56177,0.06,-1.08,0.12,-11.21,4.03,0.50,32.01
56187,0.04,-1.10,0.13,-10.18,2.90,0.09,32.01
56197,0.04,-1.11,0.14,-9.25,1.97,0.18,32.01
56207,0.04,-1.11,0.13,-8.38,2.64,0.20,32.01
56217,0.04,-1.10,0.15,-7.27,1.53,0.09,32.01
56227,0.04,-1.10,0.17,-5.76,0.11,-0.53,32.01
56237,0.05,-1.08,0.16,-3.91,-1.54,-0.81,31.97
56247,0.07,-1.07,0.15,-2.90,-1.50,-1.57,32.06
56257,0.07,-1.06,0.14,-2.08,-2.06,-2.63,31.97
56267,0.09,-1.01,0.13,-2.58,-3.42,-3.50,32.06
56277,0.11,-0.99,0.12,-4.15,-4.05,-4.66,32.06
56287,0.11,-0.96,0.10,-5.92,-2.79,-6.31,32.15
56297,0.12,-0.94,0.09,-6.37,-2.82,-6.60,32.06
56307,0.12,-0.92,0.07,-6.32,-2.46,-6.93,32.06
56317,0.11,-0.90,0.07,-7.24,-0.56,-6.76,32.01
56327,0.10,-0.90,0.07,-8.17,-1.13,-6.15,32.01
56337,0.11,-0.88,0.06,-9.04,-0.63,-5.15,32.01
56347,0.12,-0.88,0.07,-9.60,1.02,-3.76,32.01
56357,0.12,-0.88,0.06,-10.03,1.91,-2.44,32.11
56367,0.12,-0.89,0.05,-11.36,2.99,-0.87,32.01
56377,0.12,-0.89,0.05,-12.56,3.62,0.72,32.01
56387,0.12,-0.91,0.05,-14.31,3.44,1.50,32.01
56397,0.11,-0.94,0.06,-15.86,2.43,2.32,32.01
56407,0.10,-0.96,0.07,-17.92,0.43,3.21,32.11
