Timestamp,Acce_X,Acce_Y,Acce_Z,Gyro_X,Gyro_Y,Gyro_Z,Temp
51337,-0.01,-1.02,0.01,-1.24,6.32,-2.14,32.11
51347,-0.02,-1.00,-0.01,0.35,8.27,-4.96,32.01
51357,-0.02,-0.97,-0.01,1.80,9.05,-7.37,32.11
51367,-0.05,-0.93,-0.04,0.93,9.65,-10.58,32.01
51377,-0.08,-0.86,-0.06,-1.71,8.21,-15.10,32.11
51387,-0.12,-0.75,-0.11,-7.76,1.97,-20.38,32.01
51397,-0.16,-0.70,-0.18,-16.44,-4.18,-20.40,32.06
51407,-0.20,-0.64,-0.20,-29.59,-10.17,-15.85,32.06
51417,-0.21,-0.63,-0.21,-41.36,-13.86,-6.82,32.06
51427,-0.22,-0.64,-0.20,-50.98,-15.95,3.94,32.06
51437,-0.21,-0.70,-0.16,-53.68,-21.28,15.44,32.06
51447,-0.12,-0.75,-0.12,-54.08,-9.63,22.93,31.97
51457,-0.10,-0.75,-0.06,-53.83,-2.09,26.66,32.06
51467,-0.08,-0.75,-0.00,-50.82,2.18,26.52,32.06
51477,-0.07,-0.75,0.01,-43.82,2.93,24.41,32.06
51487,-0.05,-0.76,0.01,-35.33,6.47,20.50,32.06
51497,-0.05,-0.78,-0.01,-30.06,9.53,13.30,32.11
51507,-0.07,-0.75,-0.01,-27.07,12.08,5.48,32.11
51517,-0.10,-0.74,-0.02,-21.98,13.01,-1.39,32.01
51527,-0.14,-0.71,-0.06,-17.97,13.25,-5.27,31.92
51537,-0.16,-0.69,-0.08,-17.94,14.31,-9.69,32.11
51547,-0.19,-0.66,-0.12,-20.64,11.54,-14.53,32.11
51557,-0.17,-0.66,-0.18,-25.71,5.94,-16.26,32.01
51567,-0.19,-0.60,-0.20,-33.02,1.92,-21.80,31.97
51577,-0.23,-0.52,-0.17,-39.63,-7.11,-19.13,32.01
51587,-0.25,-0.54,-0.22,-46.70,-12.56,-13.91,32.06
51597,-0.27,-0.58,-0.28,-51.83,-11.76,-2.21,32.06
51607,-0.30,-0.66,-0.26,-56.43,-10.89,12.35,31.97
51617,-0.26,-0.77,-0.20,-63.97,-3.80,25.01,32.06
51627,-0.28,-0.85,-0.22,-62.75,-8.72,33.31,32.06
51637,-0.29,-0.93,-0.17,-57.50,-16.05,37.39,31.97
51647,-0.18,-0.92,-0.16,-57.33,-16.31,32.96,32.06
51657,-0.11,-0.90,-0.19,-52.15,-19.56,26.41,32.06
51667,-0.02,-0.87,-0.24,-51.04,-12.24,21.36,31.97
51677,-0.02,-0.85,-0.28,-49.65,-13.44,17.30,32.06
51687,-0.03,-0.88,-0.31,-45.89,-10.66,15.73,31.92
51697,-0.05,-0.93,-0.28,-44.70,-9.05,15.76,32.01
51707,-0.10,-1.02,-0.24,-39.45,-7.18,14.72,32.11
51717,-0.10,-1.07,-0.20,-40.95,-7.16,10.99,31.92
51727,-0.10,-1.11,-0.17,-40.43,-11.40,4.17,32.01
51737,-0.06,-1.10,-0.15,-35.86,-12.44,-6.41,32.01
51747,0.00,-1.05,-0.11,-28.03,-14.96,-19.83,32.01
51757,0.06,-1.01,-0.10,-15.98,-16.27,-35.39,32.11
51767,0.10,-0.97,-0.11,-2.93,-17.98,-50.87,32.01
51777,0.05,-0.98,-0.16,13.71,-22.20,-60.73,32.06
51787,-0.01,-1.02,-0.22,31.31,-19.01,-62.32,32.11
51797,-0.05,-1.08,-0.24,41.51,-11.95,-59.51,32.01
51807,-0.08,-1.12,-0.25,45.02,-5.33,-53.42,32.06
51817,-0.09,-1.15,-0.20,45.97,-2.18,-42.03,32.06
51827,-0.08,-1.18,-0.12,41.62,-3.11,-35.10,32.15
51837,-0.05,-1.17,-0.03,42.53,-7.21,-30.49,32.06
51847,-0.00,-1.14,0.01,54.55,-11.04,-28.66,31.97
51857,0.06,-1.13,-0.04,71.13,-7.57,-27.10,31.97
51867,0.08,-1.15,-0.09,80.49,-7.51,-26.11,32.06
51877,0.08,-1.11,-0.18,77.66,1.76,-25.28,31.97
51887,0.12,-1.08,-0.20,67.73,11.08,-23.16,32.06
51897,0.08,-1.05,-0.16,56.20,9.05,-24.12,31.97
51907,0.06,-1.04,-0.16,47.60,-1.37,-27.50,32.01
51917,0.06,-1.03,-0.19,34.49,-8.85,-28.46,32.11
51927,0.11,-0.99,-0.11,27.76,-15.07,-31.98,32.01
51937,0.18,-1.03,-0.15,17.97,-19.24,-38.15,32.01
51947,0.20,-1.05,-0.14,9.66,-21.60,-43.08,32.01
51957,0.17,-1.04,-0.13,6.24,-24.72,-45.69,32.01
51967,0.16,-1.06,-0.14,2.38,-25.30,-44.15,32.01
51977,0.16,-1.07,-0.16,-1.80,-21.76,-38.93,32.01
51987,0.15,-1.06,-0.18,-5.40,-19.01,-32.35,32.06
51997,0.14,-1.06,-0.13,-12.11,-19.13,-26.70,32.06
52007,0.15,-1.06,-0.12,-17.89,-20.44,-20.79,32.06
52017,0.17,-1.07,-0.11,-19.28,-17.62,-15.25,32.06
52027,-0.19,-1.18,0.11,-21.16,-41.86,-34.43,32.06
52037,0.10,-1.17,-0.05,-5.05,-18.49,-15.73,32.06
52047,0.18,-1.04,-0.10,-22.49,-8.00,-10.78,31.97
52057,0.15,-1.13,-0.05,-33.53,9.37,-9.80,32.06
52067,0.22,-0.99,-0.03,-14.73,-40.79,-3.80,31.87
52077,0.17,-1.18,-0.02,-25.92,27.40,-3.44,31.97
52087,-0.03,-1.18,-0.01,-33.36,-6.93,-19.28,32.11
52097,-0.06,-1.15,0.05,-33.92,-47.98,-47.10,32.01
52107,0.01,-1.17,-0.04,-18.66,-94.34,-67.48,31.92
52117,0.04,-1.09,-0.17,-2.82,-125.24,-82.49,32.11
52127,0.12,-1.09,-0.15,14.66,-124.98,-94.29,32.01
52137,0.16,-1.11,-0.20,24.15,-122.34,-96.63,32.01
52147,0.21,-1.07,-0.19,18.14,-111.50,-89.82,32.01
52157,0.28,-1.12,-0.32,29.24,-81.66,-67.51,32.06
52167,0.25,-1.10,-0.26,24.95,-44.81,-35.57,32.01
52177,0.26,-1.12,-0.17,16.52,-8.72,-9.16,31.97
52187,0.26,-1.22,-0.03,14.85,5.01,7.21,32.06
52197,0.25,-1.27,0.05,27.15,12.96,13.97,32.06
52207,0.28,-1.26,0.10,35.77,4.81,11.45,32.06
52217,0.32,-1.24,0.06,43.07,3.25,5.01,31.97
52227,0.33,-1.20,0.05,43.42,-5.10,-4.43,32.06
52237,0.32,-1.17,0.00,34.08,-15.97,-16.06,32.06
52247,0.33,-1.13,-0.03,19.82,-23.88,-28.67,31.97
52257,0.29,-1.13,-0.01,5.07,-37.50,-40.89,31.97
52267,0.26,-1.11,-0.01,-4.56,-47.92,-44.69,32.01
52277,0.27,-1.10,-0.03,-9.79,-45.77,-42.85,32.01
52287,0.29,-1.11,-0.02,-8.89,-35.59,-36.55,31.92
52297,0.29,-1.14,0.02,-0.58,-21.88,-26.15,32.01
52307,0.29,-1.13,0.03,9.01,-8.85,-16.49,32.01
52317,0.26,-1.14,0.05,17.65,-2.17,-8.32,31.92
52327,0.25,-1.13,0.05,22.61,4.61,-4.84,31.97
52337,0.21,-1.10,0.04,22.90,6.73,-4.70,32.01
52347,0.20,-1.09,0.01,19.40,3.51,-6.06,31.92
52357,0.18,-1.06,-0.02,14.20,-2.49,-8.81,31.97
52367,0.17,-1.02,-0.02,10.37,-12.61,-11.74,31.97
52377,0.18,-1.00,-0.04,6.46,-23.69,-13.31,32.06
52387,0.19,-0.97,-0.07,1.69,-33.59,-11.68,31.97
52397,0.25,-0.95,-0.12,-7.62,-34.73,-8.99,31.97
52407,0.26,-0.94,-0.14,-19.15,-32.55,-5.45,31.97
52417,0.29,-0.96,-0.15,-30.81,-21.65,-1.77,31.97
52427,0.23,-1.04,-0.07,-35.65,-20.41,-0.67,32.06
52437,0.21,-1.08,-0.02,-32.76,-11.53,3.37,32.06
52447,0.19,-1.06,-0.01,-26.29,-12.75,6.89,32.11
52457,0.20,-1.04,-0.03,-22.95,-18.99,8.00,32.01
52467,0.23,-1.01,-0.09,-21.97,-22.31,8.38,32.01
52477,0.26,-0.97,-0.16,-24.73,-21.60,9.34,31.92
52487,0.25,-0.95,-0.21,-30.15,-20.84,8.75,32.01
52497,0.26,-0.97,-0.19,-38.98,-9.74,6.56,32.01
52507,0.23,-1.01,-0.16,-44.09,-12.41,1.86,31.92
52517,0.16,-1.02,-0.13,-45.25,-16.92,0.34,32.01
52527,0.14,-1.06,-0.08,-40.63,-20.56,1.91,32.01
52537,0.16,-1.09,-0.09,-27.68,-20.50,6.29,31.97
52547,0.15,-1.09,-0.06,-15.24,-24.82,12.70,31.97
52557,0.18,-1.05,-0.10,-13.50,-22.46,14.99,31.97
52567,0.18,-1.06,-0.15,-14.49,-19.94,16.49,32.06
52577,0.19,-1.03,-0.16,-19.42,-18.40,16.24,31.97
52587,0.18,-1.03,-0.17,-24.55,-19.74,12.99,31.97
52597,0.18,-1.02,-0.17,-24.44,-19.07,9.51,31.97
52607,0.17,-1.03,-0.16,-22.32,-17.91,7.54,31.97
52617,0.13,-1.00,-0.18,-21.28,-16.34,8.11,32.01
52627,0.11,-0.99,-0.17,-20.78,-13.80,10.98,31.92
52637,0.09,-0.98,-0.17,-20.21,-15.48,15.24,31.92
52647,0.10,-1.02,-0.17,-17.57,-14.90,19.05,32.01
52657,0.10,-1.05,-0.15,-14.49,-17.15,23.63,31.92
52667,0.14,-1.09,-0.14,-13.07,-17.69,25.01,32.01
52677,0.17,-1.10,-0.13,-13.71,-14.72,22.89,32.01
52687,0.18,-1.10,-0.16,-12.40,-8.37,20.78,32.01
52697,0.18,-1.09,-0.19,-8.67,-2.78,20.70,31.92
52707,0.10,-1.17,-0.07,-3.34,-0.24,16.66,31.97
52717,0.16,-1.10,-0.23,-4.89,1.92,16.82,32.06
52727,0.13,-1.05,-0.26,-5.57,-6.29,14.32,31.97
52737,0.10,-1.02,-0.27,-8.79,-9.76,10.63,32.06
52747,0.06,-1.01,-0.29,-12.76,-13.60,7.34,31.97
52757,0.01,-1.03,-0.30,-17.97,-20.56,3.21,32.06
52767,-0.03,-1.03,-0.28,-24.78,-29.01,-1.89,31.97
52777,-0.06,-1.02,-0.29,-30.49,-38.47,-2.00,31.97
52787,0.01,-1.02,-0.36,-28.21,-31.27,5.31,31.97
52797,-0.02,-1.03,-0.28,-26.12,-30.47,15.50,32.01
52807,0.03,-1.00,-0.24,-18.89,-16.53,30.44,31.92
52817,0.07,-1.06,-0.21,-11.95,-6.21,42.63,32.01
52827,0.14,-1.09,-0.16,-11.34,-2.87,46.06,32.01
52837,0.21,-1.12,-0.18,-9.74,1.62,41.65,32.01
52847,0.24,-1.13,-0.19,-10.96,2.06,34.64,32.01
52857,0.23,-1.18,-0.08,-16.89,3.88,21.98,32.01
52867,0.22,-1.15,-0.12,-22.89,0.89,15.07,32.01
52877,0.16,-1.12,-0.14,-25.21,-9.69,8.24,32.06
52887,0.13,-1.11,-0.12,-23.94,-10.84,3.01,32.06
52897,0.15,-1.10,-0.18,-17.77,-5.15,4.75,31.97
52907,0.08,-1.12,-0.10,-16.79,-7.48,4.38,31.97
52917,0.09,-1.09,-0.11,-14.79,-5.13,8.73,31.97
52927,0.10,-1.10,-0.12,-12.75,-2.76,10.81,31.97
52937,0.11,-1.11,-0.12,-8.85,-1.65,10.58,31.97
52947,0.13,-1.10,-0.13,-6.35,2.09,9.89,32.06
52957,0.16,-1.10,-0.16,-4.61,8.02,9.34,32.06
52967,0.13,-1.12,-0.17,-4.64,4.82,5.66,31.97
52977,0.13,-1.07,-0.16,-5.42,5.21,4.41,32.11
52987,0.11,-1.06,-0.17,-7.42,4.37,3.34,32.01
52997,0.11,-1.06,-0.17,-9.73,2.78,1.51,32.01
53007,0.11,-1.04,-0.19,-12.90,2.43,-0.93,32.01
53017,0.10,-1.06,-0.15,-10.96,-4.73,-5.07,32.01
53027,0.07,-1.10,-0.10,-7.69,-12.43,-10.38,31.92
53037,0.06,-1.10,-0.13,-3.74,-16.93,-12.89,31.92
53047,0.07,-1.06,-0.16,-0.49,-17.40,-11.10,32.06
53057,0.08,-1.04,-0.19,-1.07,-13.02,-5.50,31.92
53067,0.11,-1.04,-0.20,-1.60,-5.97,-0.06,31.97
53077,0.14,-1.05,-0.21,-1.31,0.92,1.18,32.06
53087,0.16,-1.05,-0.23,-2.14,4.44,-0.92,31.97
53097,0.16,-1.04,-0.22,-5.01,5.65,-3.45,32.06
53107,0.14,-1.06,-0.22,-7.27,5.24,-6.26,31.97
53117,0.12,-1.06,-0.21,-7.13,4.29,-8.95,31.97
53127,0.09,-1.06,-0.20,-5.92,4.24,-9.65,31.97
53137,0.07,-1.07,-0.20,-3.34,2.12,-9.74,32.06
53147,0.06,-1.07,-0.20,-1.08,-1.73,-8.82,31.97
53157,0.08,-1.06,-0.20,-0.56,-2.63,-7.69,32.06
53167,0.09,-1.07,-0.21,-0.24,-2.06,-7.36,31.92
53177,0.12,-1.06,-0.22,-0.17,-0.17,-7.28,32.01
53187,0.13,-1.06,-0.22,-0.75,1.51,-7.76,32.01
53197,0.14,-1.07,-0.25,-1.77,3.27,-7.95,31.92
53207,0.13,-1.07,-0.27,-3.21,4.78,-8.24,31.92
53217,0.16,-1.07,-0.28,-5.88,7.05,-7.97,32.01
53227,0.17,-1.07,-0.29,-9.34,12.08,-6.73,32.01
53237,0.17,-1.09,-0.29,-12.00,17.73,-5.16,32.01
53247,0.16,-1.12,-0.27,-14.41,22.06,-3.22,32.01
53257,0.16,-1.13,-0.25,-17.05,24.73,-1.79,31.97
53267,0.17,-1.15,-0.23,-18.44,25.97,-1.76,32.01
53277,0.17,-1.18,-0.22,-17.83,25.25,-5.01,32.06
53287,0.18,-1.19,-0.22,-16.29,22.58,-9.95,31.97
53297,0.18,-1.17,-0.24,-15.04,20.89,-13.45,32.06
53307,0.18,-1.16,-0.26,-14.63,22.38,-14.70,31.97
53317,0.18,-1.15,-0.27,-16.14,28.60,-14.14,32.06
53327,0.15,-1.15,-0.27,-18.47,34.58,-15.08,32.06
53337,0.12,-1.15,-0.23,-19.25,38.81,-15.66,32.06
53347,0.05,-1.19,-0.16,-18.14,40.81,-16.15,32.06
53357,-0.04,-1.25,-0.06,-5.59,45.05,-13.04,32.06
53367,-0.12,-1.29,0.00,23.71,49.21,-2.53,32.06
53377,-0.16,-1.24,0.05,34.20,50.53,7.57,31.97
53387,-0.13,-1.19,-0.03,51.39,47.34,22.89,32.01
53397,-0.09,-1.12,-0.14,52.46,53.86,29.53,32.01
53407,-0.07,-1.09,-0.14,48.63,47.18,31.37,32.01
53417,-0.01,-1.03,-0.12,37.27,28.76,26.14,32.01
53427,0.05,-1.00,-0.18,28.00,7.92,18.67,32.01
53437,0.12,-0.95,-0.25,19.13,-4.21,13.25,32.01
53447,0.19,-0.94,-0.30,12.20,-8.34,10.41,32.01
53457,0.27,-0.94,-0.31,0.27,-5.59,10.47,32.01
53467,0.34,-1.00,-0.36,-4.61,6.50,8.21,32.06
53477,0.31,-1.04,-0.29,-9.27,10.50,1.45,32.06
53487,0.06,-1.14,-0.16,-4.46,30.64,0.69,31.97
53497,0.43,-0.90,-0.36,-20.56,43.05,3.13,32.06
53507,0.30,-1.04,-0.34,-21.62,28.72,-3.53,32.06
53517,0.23,-1.12,-0.28,-33.22,26.17,-3.53,31.97
53527,0.26,-1.10,-0.27,-42.05,24.50,-2.15,31.97
53537,0.27,-1.11,-0.30,-49.18,23.66,-0.81,31.97
53547,0.26,-1.13,-0.29,-54.50,27.68,3.97,31.97
53557,0.28,-1.13,-0.26,-52.12,33.22,12.92,32.06
53567,0.28,-1.18,-0.31,-53.91,40.95,19.40,31.92
53577,0.23,-1.22,-0.29,-49.56,43.57,24.90,31.92
53587,0.19,-1.24,-0.25,-46.61,44.78,25.89,32.01
53597,0.17,-1.26,-0.25,-38.82,39.65,25.45,32.01
53607,0.18,-1.30,-0.28,-22.41,39.30,25.82,32.11
53617,0.12,-1.25,-0.32,-18.32,38.32,26.31,31.92
53627,0.14,-1.16,-0.33,-11.33,40.09,29.44,31.92
53637,0.18,-1.16,-0.35,-8.76,47.80,32.00,31.97
53647,0.22,-1.14,-0.44,-19.62,63.77,29.82,32.01
53657,0.14,-1.14,-0.41,-28.82,72.49,24.61,32.06
53667,0.11,-1.11,-0.38,-41.85,72.37,23.82,32.06
53677,0.09,-1.13,-0.41,-48.40,67.97,26.40,31.97
53687,0.02,-1.18,-0.32,-35.13,53.71,29.59,31.97
53697,0.03,-1.16,-0.29,-24.70,47.21,33.56,32.06
53707,0.05,-1.16,-0.29,-5.05,46.75,39.65,31.97
53717,0.08,-1.18,-0.26,15.16,50.67,42.70,31.97
53727,0.07,-1.19,-0.23,28.76,54.75,42.29,31.97
53737,0.08,-1.17,-0.20,43.45,56.12,38.43,31.97
53747,0.09,-1.15,-0.25,51.74,48.03,29.37,31.92
53757,0.10,-1.13,-0.27,51.30,49.59,18.46,32.01
53767,0.05,-1.11,-0.25,51.63,39.11,6.55,32.01
53777,0.03,-1.10,-0.31,47.66,29.28,-6.02,31.92
53787,0.06,-1.08,-0.31,41.15,29.89,-18.12,32.01
53797,-0.01,-1.08,-0.31,31.25,11.71,-29.18,32.01
53807,-0.09,-1.12,-0.32,28.53,-33.25,-44.40,32.06
53817,0.06,-1.06,-0.37,28.03,10.40,-31.86,32.01
53827,0.06,-1.00,-0.33,35.66,21.71,-16.52,32.01
53837,0.02,-0.94,-0.30,31.80,32.53,-8.08,31.97
53847,-0.00,-1.01,-0.29,31.66,29.08,-1.28,32.06
53857,-0.04,-1.04,-0.26,35.25,20.85,7.10,31.97
53867,-0.01,-1.05,-0.23,33.60,17.56,13.05,31.97
53877,0.01,-1.09,-0.21,32.32,19.53,18.43,32.06
53887,0.04,-1.07,-0.22,31.62,19.80,23.02,31.97
53897,-0.01,-1.10,-0.17,33.40,17.21,20.89,31.97
53907,0.04,-1.12,-0.19,36.52,17.31,17.31,31.97
53917,-0.02,-1.10,-0.09,32.17,12.61,10.46,31.97
53927,-0.01,-1.12,-0.09,35.24,7.91,7.33,32.01
53937,0.01,-1.09,-0.09,40.27,9.77,9.54,32.01
53947,-0.01,-1.05,-0.07,44.96,9.53,12.99,32.01
53957,0.00,-1.07,-0.02,52.24,10.87,17.28,32.01
53967,0.06,-1.00,-0.05,58.37,23.71,24.41,32.01
53977,0.08,-0.99,-0.06,62.81,31.28,25.77,32.01
53987,0.10,-0.96,-0.02,65.83,36.89,22.99,32.01
53997,0.09,-0.95,0.01,68.41,36.00,14.99,32.01
54007,0.08,-0.94,0.01,70.26,28.63,4.03,31.92
54017,0.09,-0.94,0.01,70.43,19.89,-7.42,31.97
54027,0.10,-0.92,-0.01,66.66,12.11,-19.08,32.06
54037,0.10,-0.89,-0.03,61.83,7.47,-29.66,31.97
54047,0.10,-0.89,-0.04,57.40,3.42,-40.26,31.97
54057,0.09,-0.89,-0.04,52.85,1.18,-48.37,31.97
54067,0.08,-0.90,-0.06,48.64,-0.08,-53.08,32.06
54077,0.07,-0.93,-0.07,45.77,-1.60,-52.26,31.97
54087,0.07,-0.94,-0.06,45.27,0.24,-46.37,32.06
54097,0.02,-0.95,-0.04,47.15,-3.74,-38.61,31.97
54107,0.07,-0.95,-0.02,48.99,7.71,-27.57,31.97
54117,0.09,-0.90,-0.01,51.47,10.89,-17.71,31.92
54127,0.10,-0.87,0.03,52.72,12.27,-9.57,32.11
54137,0.11,-0.85,0.02,54.38,11.10,-3.66,32.01
54147,0.11,-0.85,0.01,54.23,9.39,1.07,32.01
54157,0.11,-0.84,-0.01,47.85,8.44,5.18,32.01
54167,0.01,-0.89,0.13,37.01,-5.85,5.08,32.01
54177,0.12,-0.80,0.02,32.79,2.38,12.06,31.92
54187,0.13,-0.83,0.02,26.34,5.48,13.02,32.06
54197,0.15,-0.81,0.03,20.03,7.71,14.93,32.11
54207,0.11,-0.80,-0.03,14.90,0.55,21.95,32.01
54217,0.17,-0.80,0.04,8.15,3.74,25.22,32.06
54227,0.16,-0.85,0.05,5.53,7.54,26.38,32.06
54237,0.17,-0.88,0.11,7.89,8.44,27.50,32.06
54247,0.17,-0.91,0.14,9.82,8.08,24.41,31.97
54257,0.18,-0.90,0.17,11.33,7.68,19.01,32.06
54267,0.20,-0.89,0.16,14.47,10.09,12.40,32.06
54277,0.19,-0.90,0.16,20.05,10.98,5.79,32.06
54287,0.20,-0.90,0.15,23.37,13.19,-2.27,31.97
54297,0.19,-0.89,0.16,24.02,14.93,-10.32,32.06
54307,0.18,-0.89,0.16,23.54,18.05,-18.08,31.97
54317,0.15,-0.89,0.15,24.61,18.05,-23.80,32.01
54327,0.12,-0.90,0.13,25.11,18.92,-25.77,32.01
54337,0.10,-0.91,0.13,26.35,18.00,-24.20,32.01
54347,0.08,-0.93,0.12,27.77,18.55,-19.98,32.01
54357,0.09,-0.92,0.12,29.66,20.08,-14.15,32.01
54367,0.10,-0.93,0.12,31.82,21.88,-8.75,32.01
54377,0.12,-0.92,0.15,34.41,22.79,-4.95,32.01
54387,0.15,-0.92,0.16,33.39,25.63,-4.49,31.82
54397,0.15,-0.92,0.18,30.37,26.90,-7.07,31.97
54407,0.16,-0.91,0.22,25.37,27.63,-11.88,32.01
54417,0.16,-0.90,0.25,19.89,26.70,-18.93,31.97
54427,0.13,-0.91,0.25,15.21,24.44,-26.56,32.06
54437,0.11,-0.90,0.27,10.81,22.00,-32.82,32.06
54447,0.09,-0.89,0.29,5.53,20.14,-35.74,32.06
54457,0.08,-0.87,0.29,1.40,18.43,-35.73,32.06
54467,0.09,-0.87,0.29,-0.11,18.58,-33.68,31.87
54477,0.10,-0.87,0.32,-2.11,18.61,-30.84,31.97
54487,0.09,-0.88,0.34,-4.41,17.10,-28.06,31.97
54497,0.11,-0.87,0.35,-5.98,18.37,-25.36,32.06
54507,0.11,-0.87,0.37,-5.79,18.73,-22.85,32.06
54517,0.11,-0.86,0.38,-5.59,19.44,-20.85,32.11
54527,0.11,-0.86,0.41,-5.11,18.14,-19.66,32.01
54537,0.10,-0.85,0.40,-4.20,16.49,-19.51,32.01
54547,0.10,-0.85,0.41,-3.63,13.66,-20.44,32.01
54557,0.09,-0.87,0.38,-0.66,11.47,-19.85,32.11
54567,0.08,-0.89,0.34,2.60,9.65,-16.67,31.92
54577,0.15,-0.86,0.29,4.05,10.06,-8.69,32.01
54587,0.07,-0.90,0.27,7.05,2.69,-0.85,32.01
54597,0.08,-0.91,0.23,10.69,6.46,11.15,32.11
54607,0.10,-0.92,0.22,13.57,7.62,21.92,32.06
54617,0.12,-0.91,0.20,15.16,8.67,30.34,32.11
54627,0.14,-0.92,0.23,15.69,7.92,34.03,31.97
54637,0.15,-0.92,0.25,13.88,7.15,33.77,31.97
54647,0.17,-0.92,0.25,11.01,5.30,29.63,32.06
54657,0.16,-0.93,0.27,9.51,2.52,23.15,32.06
54667,0.16,-0.93,0.28,7.31,-0.63,15.73,32.06
54677,0.18,-0.93,0.29,3.05,0.93,7.21,31.97
54687,0.15,-0.94,0.31,1.31,-2.15,-0.44,31.97
54697,0.15,-0.94,0.29,0.84,-1.50,-4.63,31.97
54707,0.14,-0.94,0.29,1.73,-1.24,-4.99,31.97
54717,0.11,-0.94,0.27,3.73,-2.72,-1.60,32.01
54727,0.10,-0.93,0.29,5.92,-1.10,3.07,32.01
54737,0.08,-0.96,0.30,5.60,-2.20,8.64,32.11
54747,0.14,-0.95,0.29,5.60,3.68,14.24,32.01
54757,0.12,-0.96,0.31,4.40,4.98,16.81,32.11
54767,0.14,-0.99,0.31,4.24,3.73,16.44,32.01
54777,0.14,-0.99,0.33,1.50,2.11,13.86,32.06
54787,0.15,-1.00,0.32,0.05,-0.12,10.96,32.01
54797,0.15,-1.02,0.32,0.38,-1.04,8.35,32.11
54807,0.14,-1.02,0.32,0.02,0.78,6.70,31.97
54817,0.15,-1.02,0.32,1.15,0.63,6.56,32.06
54827,0.15,-1.01,0.32,2.63,1.76,6.76,32.06
54837,0.15,-1.01,0.33,3.62,2.18,6.02,32.06
54847,0.15,-1.00,0.33,3.57,3.42,5.08,31.97
54857,0.15,-1.00,0.33,3.39,3.63,3.82,32.06
54867,0.14,-0.98,0.32,2.78,3.82,3.19,32.06
54877,0.14,-0.97,0.32,0.92,4.21,2.89,31.97
54887,0.13,-0.97,0.31,-1.27,4.47,3.40,32.06
54897,0.13,-0.96,0.31,-3.15,4.99,3.60,32.01
54907,0.12,-0.95,0.31,-5.74,5.39,3.27,32.01
54917,0.12,-0.96,0.32,-8.38,4.92,2.79,32.11
54927,0.11,-0.95,0.31,-14.20,5.51,1.07,32.01
54937,0.10,-0.92,0.29,-25.07,11.66,0.31,32.11
54947,0.09,-0.93,0.31,-31.89,6.37,1.42,31.92
54957,0.08,-0.92,0.32,-35.88,2.21,1.34,32.01
54967,0.13,-0.87,0.25,-34.63,-8.47,5.11,31.92
54977,0.09,-0.92,0.34,-34.11,-6.27,3.77,32.01
54987,0.10,-0.95,0.34,-28.53,-6.93,7.25,31.97
54997,0.11,-0.96,0.33,-22.92,-5.82,10.02,32.01
55007,0.10,-0.98,0.32,-16.92,-4.40,13.05,31.97
55017,0.10,-1.01,0.33,-13.31,-2.60,16.63,32.06
55027,0.12,-1.02,0.32,-8.17,3.24,18.95,32.06
55037,0.10,-1.04,0.34,-1.59,-1.86,18.43,32.06
55047,0.11,-1.05,0.32,1.31,-2.96,16.96,31.97
55057,0.12,-1.05,0.30,2.26,-2.02,15.65,32.06
55067,0.14,-1.05,0.28,3.63,-1.37,13.15,32.06
55077,0.13,-1.05,0.29,5.51,-0.87,9.76,31.97
55087,0.14,-1.05,0.27,6.38,-0.73,4.53,31.97
55097,0.14,-1.02,0.27,6.14,-0.47,0.18,32.06
55107,0.14,-1.00,0.26,5.83,0.31,-3.05,32.01
55117,0.14,-0.98,0.26,4.67,1.45,-5.59,32.11
55127,0.13,-0.96,0.27,3.98,2.09,-7.16,32.01
55137,0.12,-0.94,0.26,3.11,2.85,-7.22,32.01
55147,0.11,-0.93,0.24,1.18,3.40,-6.37,32.01
55157,0.10,-0.93,0.24,-1.25,3.60,-4.03,32.01
55167,0.10,-0.93,0.24,-3.98,4.49,-1.56,32.01
55177,0.09,-0.93,0.26,-5.74,4.96,0.37,32.01
55187,0.10,-0.95,0.28,-5.60,5.36,1.36,32.01
55197,0.10,-0.96,0.31,-4.73,5.62,1.68,32.06
55207,0.10,-0.96,0.31,-3.37,5.65,0.82,32.15
55217,0.10,-0.98,0.32,-2.53,5.27,-0.60,32.06
55227,0.09,-0.98,0.32,-1.71,4.18,-3.05,32.06
55237,0.08,-0.97,0.33,0.14,2.40,-5.33,32.06
55247,0.06,-0.96,0.32,1.50,-1.19,-6.31,32.06
55257,0.07,-0.95,0.30,0.05,2.26,-7.02,31.97
55267,0.05,-0.96,0.32,0.23,0.53,-5.80,31.97
55277,0.05,-0.96,0.30,1.65,-0.81,-3.82,32.06
55287,0.04,-0.96,0.29,2.87,0.14,-1.47,32.06
55297,0.05,-0.97,0.28,0.95,-1.04,1.56,31.97
55307,0.04,-0.97,0.30,-3.54,-3.10,3.97,32.01
55317,0.06,-0.97,0.31,-5.79,-4.63,5.28,32.11
55327,0.08,-0.99,0.30,-4.44,-5.37,5.66,32.01
55337,0.10,-0.99,0.33,-3.33,-6.00,5.62,32.11
55347,0.12,-0.99,0.33,-2.53,-6.72,5.74,32.01
55357,0.15,-0.99,0.32,-2.34,-3.60,3.57,32.01
55367,0.14,-0.99,0.33,-2.47,-2.41,1.05,32.11
55377,0.15,-0.98,0.34,-2.76,-2.02,-1.42,32.01
55387,0.14,-0.98,0.33,-2.98,-0.61,-3.42,32.01
55397,0.09,-1.00,0.36,-1.27,-9.54,-8.58,32.11
55407,0.11,-0.95,0.36,-1.56,-0.96,-4.85,31.97
55417,0.12,-0.93,0.33,-3.21,0.21,-4.15,32.06
55427,0.13,-0.90,0.33,-5.94,3.10,-1.15,32.06
55437,0.14,-0.87,0.33,-7.73,4.53,1.08,32.06
55447,0.13,-0.85,0.33,-7.10,4.60,2.95,32.06
55457,0.13,-0.84,0.33,-8.06,2.52,4.14,32.06
55467,0.15,-0.85,0.32,-11.63,7.24,3.22,32.06
55477,0.10,-0.87,0.33,-16.21,3.76,0.17,31.97
55487,0.09,-0.91,0.33,-22.84,2.41,-3.16,32.06
55497,0.06,-0.96,0.34,-26.81,-0.58,-5.19,32.15
55507,0.06,-0.99,0.33,-26.17,-2.93,-5.30,32.01
55517,0.07,-1.02,0.32,-22.63,-4.02,-3.94,32.01
55527,0.08,-1.05,0.31,-18.61,-4.55,-2.56,32.01
55537,0.09,-1.07,0.29,-14.38,-3.69,-0.43,32.01
55547,0.09,-1.08,0.28,-9.18,-4.72,2.35,32.11
55557,0.10,-1.07,0.26,-5.27,-3.86,5.76,32.01
55567,0.12,-1.07,0.25,-2.38,-2.95,8.67,32.11
55577,0.11,-1.07,0.23,0.15,-3.16,11.79,32.06
55587,0.12,-1.07,0.22,2.02,-3.48,14.41,32.01
55597,0.13,-1.06,0.21,3.73,-2.61,15.54,31.92
55607,0.15,-1.06,0.20,4.23,-1.07,14.50,32.06
55617,0.15,-1.03,0.22,3.62,0.09,11.45,32.06
55627,0.15,-1.02,0.23,2.70,-0.76,7.50,32.06
55637,0.15,-1.02,0.21,-0.61,1.08,1.34,32.06
55647,0.15,-1.02,0.23,-3.97,1.34,-3.88,31.97
55657,0.14,-1.02,0.25,-8.40,2.50,-8.53,31.97
55667,0.13,-1.02,0.26,-12.05,2.90,-11.62,32.06
55677,0.11,-1.01,0.27,-14.55,3.95,-12.37,31.97
55687,0.10,-1.01,0.28,-15.48,4.81,-11.68,32.06
55697,0.10,-1.02,0.29,-14.66,5.76,-10.06,32.06
55707,0.08,-1.02,0.30,-12.98,5.95,-7.27,32.01
55717,0.07,-1.03,0.30,-11.02,5.94,-4.05,32.01
55727,0.07,-1.04,0.31,-8.24,5.89,-0.37,32.01
55737,0.06,-1.04,0.30,-5.44,5.66,3.22,32.01
55747,0.06,-1.04,0.31,-2.92,4.96,5.92,32.01
55757,0.07,-1.04,0.30,-1.18,4.78,7.05,32.01
55767,0.08,-1.04,0.31,-0.82,4.41,6.31,32.01
55777,0.08,-1.04,0.30,-0.29,3.42,4.11,32.01
55787,0.08,-1.04,0.29,0.14,2.90,1.37,32.06
55797,0.07,-1.02,0.29,-0.26,1.69,-1.18,32.11
55807,0.08,-1.01,0.29,-0.69,-0.43,-3.04,32.06
55817,0.08,-1.00,0.28,-1.11,-1.24,-4.41,32.06
55827,0.09,-0.98,0.27,-0.08,-1.57,-4.20,31.97
55837,0.08,-0.96,0.27,0.87,-1.40,-2.47,32.06
55847,0.10,-0.96,0.26,1.82,-0.78,0.53,32.06
55857,0.10,-0.95,0.26,2.90,0.17,3.92,31.97
55867,0.12,-0.95,0.25,3.57,0.84,7.33,32.06
55877,0.13,-0.94,0.25,4.60,0.81,9.62,32.06
55887,0.13,-0.93,0.26,5.33,2.76,10.98,32.06
55897,0.14,-0.95,0.26,6.61,3.07,11.31,32.11
55907,0.13,-0.95,0.27,7.10,4.20,10.31,32.01
55917,0.14,-0.95,0.27,8.26,5.10,9.02,32.11
55927,0.11,-0.96,0.28,7.50,3.73,7.79,32.01
55937,0.07,-1.03,0.30,5.37,-1.60,4.64,32.01
55947,0.13,-0.99,0.29,2.17,0.70,6.00,32.01
55957,0.11,-1.01,0.29,-4.40,1.80,3.91,32.06
55967,0.12,-1.02,0.29,-13.13,3.25,2.99,31.92
55977,0.11,-1.04,0.32,-17.83,3.63,2.85,32.01
55987,0.10,-1.06,0.32,-17.44,1.76,2.52,32.01
55997,0.10,-1.07,0.32,-14.00,2.31,2.52,31.97
56007,0.10,-1.07,0.34,-11.69,3.76,2.87,31.97
56017,0.11,-1.08,0.34,-9.39,5.59,2.73,31.97
56027,0.10,-1.09,0.34,-6.52,5.54,1.82,31.97
56037,0.10,-1.08,0.34,-4.35,4.00,-0.23,32.06
56047,0.09,-1.07,0.34,-2.63,3.30,-2.05,31.97
56057,0.09,-1.05,0.33,-0.85,2.63,-3.22,31.97
56067,0.09,-1.03,0.31,0.46,2.69,-4.50,32.06
56077,0.09,-1.01,0.31,0.60,2.66,-5.91,32.01
56087,0.09,-0.98,0.30,1.04,1.83,-6.82,32.01
56097,0.10,-0.97,0.29,0.98,0.98,-6.70,32.01
56107,0.09,-0.95,0.28,0.03,1.65,-6.41,32.01
56117,0.10,-0.94,0.27,-0.73,3.27,-5.56,32.01
56127,0.10,-0.92,0.28,-2.23,3.56,-5.07,32.01
56137,0.10,-0.92,0.28,-3.89,2.95,-5.50,32.01
56147,0.11,-0.91,0.28,-6.49,1.80,-6.44,32.01
56157,0.11,-0.90,0.29,-10.20,1.60,-6.49,32.01
56167,0.11,-0.90,0.30,-12.53,1.10,-6.18,31.97
56177,0.12,-0.89,0.31,-14.35,2.29,-5.77,32.06
56187,0.12,-0.89,0.32,-15.21,2.35,-5.62,31.97
56197,0.12,-0.89,0.33,-15.65,2.98,-5.85,32.06
56207,0.11,-0.90,0.34,-15.27,2.73,-5.45,32.06
56217,0.10,-0.90,0.33,-15.10,2.56,-4.15,32.06
56227,0.09,-0.92,0.32,-14.92,1.88,-1.63,32.06
56237,0.09,-0.94,0.32,-13.83,0.98,2.29,32.06
56247,0.08,-0.96,0.30,-12.38,0.90,6.40,31.97
56257,0.08,-0.99,0.30,-10.11,0.89,9.77,32.01
56267,0.08,-1.03,0.27,-7.36,0.69,11.28,32.01
56277,0.07,-1.10,0.27,-4.21,-1.13,12.05,31.92
56287,0.05,-1.14,0.27,0.05,-4.66,12.82,32.01
56297,0.08,-1.20,0.26,4.29,-3.31,13.10,32.01
56307,0.07,-1.18,0.28,5.71,-2.00,12.84,32.01
56317,0.10,-1.20,0.29,8.76,-2.95,10.98,32.11
56327,0.11,-1.19,0.27,13.68,-1.79,8.12,32.11
