Millis,Acce_X,Acce_Y,Acce_Z,Gyro_X,Gyro_Y,Gyro_Z,Temp
89187,0.21,-0.75,-0.06,-6.06,-19.16,44.23,30.55
89197,0.29,-0.74,-0.07,-18.67,-2.60,27.25,30.51
89207,0.28,-0.76,0.01,-29.86,7.94,4.64,30.51
89217,0.22,-0.78,0.08,-35.04,9.08,-18.49,30.51
89227,0.15,-0.82,0.15,-33.82,4.05,-37.07,30.41
89237,0.06,-0.81,0.19,-28.75,1.24,-45.50,30.51
89247,-0.03,-0.79,0.21,-19.60,1.68,-43.65,30.51
89257,-0.07,-0.76,0.19,-10.21,6.95,-32.67,30.46
89267,-0.09,-0.73,0.18,-3.51,16.21,-20.14,30.46
89277,-0.12,-0.68,0.19,-1.76,20.64,-10.43,30.46
89287,-0.13,-0.64,0.19,-2.79,20.75,-5.71,30.46
89297,-0.11,-0.63,0.17,-5.66,18.85,-4.49,30.46
89307,-0.08,-0.63,0.17,-12.31,17.94,-5.95,30.46
89317,-0.08,-0.63,0.20,-18.34,15.07,-8.93,30.46
89327,-0.09,-0.63,0.20,-21.04,14.69,-9.92,30.41
89337,-0.08,-0.65,0.18,-23.15,15.11,-8.90,30.41
89347,-0.09,-0.65,0.18,-26.06,12.81,-6.72,30.41
89357,-0.06,-0.67,0.14,-27.21,11.92,-3.48,30.41
89367,-0.02,-0.69,0.12,-29.10,12.67,-1.57,30.51
89377,-0.01,-0.72,0.12,-32.99,13.18,-1.08,30.60
89387,-0.01,-0.72,0.13,-38.99,11.60,-1.74,30.37
89397,-0.00,-0.75,0.13,-43.36,8.95,-3.15,30.37
89407,0.01,-0.78,0.12,-46.95,7.89,-4.40,30.55
89417,0.00,-0.80,0.14,-49.22,6.11,-5.57,30.37
89427,-0.01,-0.83,0.16,-47.80,4.73,-4.40,30.46
89437,-0.03,-0.83,0.16,-43.57,4.06,1.13,30.46
89447,-0.03,-0.81,0.15,-39.83,7.04,10.20,30.55
89457,-0.01,-0.81,0.14,-36.96,12.49,18.58,30.51
89467,0.01,-0.81,0.12,-34.41,15.73,23.54,30.41
89477,0.02,-0.82,0.10,-33.60,15.65,24.70,30.51
89487,0.03,-0.85,0.09,-34.72,13.47,22.17,30.51
89497,0.05,-0.86,0.07,-36.69,11.37,16.55,30.51
89507,0.07,-0.88,0.04,-39.24,9.24,7.95,30.41
89517,0.07,-0.88,0.03,-41.28,6.53,-0.82,30.46
89527,0.05,-0.90,0.02,-43.65,1.89,-9.79,30.46
89537,0.04,-0.92,0.00,-45.05,-2.47,-16.84,30.46
89547,0.02,-0.92,-0.00,-46.55,-5.40,-20.64,30.46
89557,0.01,-0.89,-0.01,-46.00,-6.61,-21.94,30.46
89567,0.00,-0.87,-0.03,-45.11,-7.47,-21.74,30.55
89577,-0.01,-0.83,-0.07,-45.95,-6.64,-20.11,30.46
89587,-0.01,-0.79,-0.13,-48.60,-4.18,-16.75,30.41
89597,-0.03,-0.80,-0.15,-50.92,-4.61,-13.01,30.41
89607,-0.04,-0.81,-0.18,-53.80,-4.58,-11.15,30.51
89617,-0.05,-0.83,-0.22,-56.46,-6.47,-9.57,30.41
89627,-0.05,-0.84,-0.22,-60.02,-10.34,-7.60,30.41
89637,-0.07,-0.86,-0.23,-63.24,-14.12,-4.14,30.51
89647,-0.06,-0.89,-0.23,-65.73,-15.59,1.40,30.46
89657,-0.04,-0.91,-0.22,-65.63,-13.71,7.91,30.46
89667,-0.02,-0.93,-0.24,-62.60,-10.52,12.41,30.46
89677,0.02,-0.96,-0.25,-58.20,-7.21,14.70,30.46
89687,0.06,-0.95,-0.32,-57.66,-3.24,12.76,30.46
89697,0.02,-0.98,-0.30,-59.10,-6.11,10.64,30.46
89707,0.04,-1.00,-0.32,-62.15,-4.38,4.90,30.51
89717,0.02,-1.03,-0.31,-62.46,-4.69,-3.04,30.41
89727,0.02,-0.99,-0.38,-63.34,-6.31,-11.53,30.41
89737,-0.01,-0.92,-0.50,-66.08,-5.69,-13.57,30.51
89747,-0.05,-0.88,-0.57,-73.05,-5.66,-5.27,30.51
89757,-0.08,-0.87,-0.61,-85.19,-0.18,10.14,30.51
89767,-0.07,-0.90,-0.58,-100.50,12.64,27.68,30.51
89777,-0.07,-0.99,-0.51,-111.83,17.94,40.15,30.46
89787,-0.04,-1.12,-0.39,-114.15,16.05,44.47,30.37
89797,0.01,-1.23,-0.30,-105.63,11.85,43.27,30.46
89807,0.06,-1.34,-0.22,-88.56,6.17,36.81,30.46
89817,0.11,-1.37,-0.20,-68.32,5.60,27.31,30.37
89827,0.12,-1.32,-0.24,-51.21,4.78,14.32,30.46
89837,0.12,-1.26,-0.30,-38.93,4.38,-1.21,30.55
89847,0.05,-1.18,-0.40,-33.74,2.20,-15.39,30.51
89857,-0.06,-1.11,-0.48,-30.64,-3.48,-23.88,30.41
89867,-0.14,-1.04,-0.56,-32.82,-8.15,-24.96,30.51
89877,-0.19,-0.98,-0.62,-38.81,-9.13,-19.86,30.51
89887,-0.23,-0.98,-0.60,-43.65,-9.40,-13.05,30.41
89897,-0.22,-1.00,-0.56,-45.39,-11.95,-5.95,30.41
89907,-0.20,-1.01,-0.56,-44.15,-13.16,1.66,30.46
89917,-0.17,-1.03,-0.53,-39.25,-12.81,9.51,30.37
89927,-0.13,-1.09,-0.48,-29.16,-7.57,19.94,30.55
89937,-0.09,-1.13,-0.44,-17.77,0.63,31.85,30.55
89947,-0.06,-1.23,-0.40,-5.47,11.36,43.73,30.46
89957,-0.07,-1.37,-0.37,3.88,15.71,53.63,30.46
89967,-0.05,-1.47,-0.28,7.44,20.08,54.75,30.37
89977,-0.04,-1.54,-0.16,15.36,13.44,43.18,30.41
89987,-0.03,-1.50,-0.17,31.15,5.07,25.47,30.51
89997,-0.04,-1.40,-0.25,47.76,-3.18,12.15,30.41
90007,-0.02,-1.29,-0.42,60.34,-3.68,5.69,30.51
90017,-0.05,-1.17,-0.45,62.02,-5.18,4.66,30.41
90027,-0.02,-1.10,-0.53,51.68,-5.42,4.06,30.41
90037,-0.02,-1.11,-0.52,32.61,-10.81,-0.40,30.46
90047,-0.01,-1.14,-0.46,12.89,-17.19,-10.58,30.46
90057,0.04,-1.17,-0.39,-0.18,-26.40,-22.11,30.46
90067,0.06,-1.22,-0.33,-1.42,-29.86,-35.36,30.55
90077,0.09,-1.27,-0.27,2.15,-28.78,-50.34,30.37
90087,0.07,-1.16,-0.29,9.62,-26.66,-61.51,30.46
90097,0.02,-1.04,-0.41,15.73,-18.27,-61.42,30.37
90107,-0.02,-0.97,-0.48,17.44,-6.50,-50.35,30.41
90117,-0.05,-0.94,-0.48,15.25,0.34,-34.34,30.41
90127,-0.06,-0.92,-0.44,14.03,11.45,-19.68,30.41
90137,-0.09,-0.94,-0.39,15.19,19.89,-9.91,30.41
90147,-0.09,-0.98,-0.38,20.17,18.96,-6.55,30.32
90157,-0.08,-1.03,-0.37,23.15,9.45,-11.31,30.41
90167,-0.06,-1.03,-0.40,19.86,-5.95,-17.54,30.46
90177,-0.04,-0.97,-0.50,12.27,-12.21,-20.70,30.46
90187,-0.03,-0.96,-0.53,1.65,-9.57,-17.54,30.46
90197,0.01,-0.97,-0.52,-10.55,-4.72,-14.27,30.37
90207,0.04,-0.97,-0.56,-21.71,4.81,-10.90,30.46
90217,0.02,-0.99,-0.53,-29.39,14.95,-7.51,30.37
90227,-0.01,-1.04,-0.46,-31.76,24.34,-1.48,30.46
90237,-0.02,-1.10,-0.37,-33.57,27.40,4.20,30.32
90247,-0.02,-1.15,-0.30,-32.06,26.20,4.41,30.51
90257,-0.01,-1.18,-0.28,-26.50,24.03,0.24,30.41
90267,-0.00,-1.17,-0.26,-18.76,18.38,-5.56,30.51
90277,0.01,-1.14,-0.28,-12.90,13.66,-9.83,30.41
90287,-0.02,-1.06,-0.33,-11.36,13.56,-9.63,30.51
90297,-0.03,-1.02,-0.36,-12.99,19.50,-3.91,30.37
90307,-0.07,-1.01,-0.36,-17.89,27.98,7.37,30.37
90317,-0.06,-1.06,-0.32,-25.82,32.93,17.83,30.37
90327,-0.07,-1.14,-0.22,-31.08,31.15,20.58,30.46
90337,-0.06,-1.19,-0.15,-28.27,24.06,17.73,30.46
90347,-0.06,-1.24,-0.14,-19.82,17.04,13.15,30.46
90357,-0.03,-1.25,-0.12,-11.39,11.74,6.50,30.51
90367,-0.03,-1.18,-0.17,-5.45,11.56,-0.12,30.41
90377,-0.09,-1.11,-0.23,-2.29,11.95,0.85,30.41
90387,-0.11,-1.05,-0.30,-2.56,18.73,10.87,30.41
90397,-0.10,-1.04,-0.30,-7.74,25.83,22.81,30.51
90407,-0.04,-1.06,-0.32,-13.16,32.46,29.11,30.32
90417,-0.00,-1.10,-0.28,-18.81,32.05,27.97,30.46
90427,0.03,-1.14,-0.25,-22.58,25.19,19.76,30.46
90437,0.03,-1.18,-0.18,-21.63,10.70,4.55,30.37
90447,-0.02,-1.19,-0.14,-16.85,-6.73,-10.29,30.46
90457,-0.04,-1.18,-0.17,-11.02,-20.05,-18.61,30.46
90467,-0.03,-1.14,-0.26,-7.98,-23.85,-19.83,30.46
90477,-0.02,-1.09,-0.31,-5.80,-16.02,-13.04,30.51
90487,0.00,-1.04,-0.36,-5.71,-2.82,-1.60,30.41
90497,0.05,-1.03,-0.40,-6.06,11.53,9.63,30.41
90507,0.08,-1.05,-0.39,-9.08,21.69,14.46,30.51
90517,0.08,-1.07,-0.37,-10.72,22.60,11.69,30.37
90527,0.05,-1.08,-0.33,-12.29,15.44,4.14,30.41
90537,0.04,-1.06,-0.34,-14.60,3.76,-4.46,30.46
90547,0.03,-1.02,-0.33,-15.89,-1.88,-11.21,30.46
90557,0.02,-0.94,-0.32,-16.47,-4.21,-13.01,30.37
90567,0.05,-0.95,-0.36,-9.62,-3.24,-13.91,30.46
90577,0.05,-0.92,-0.43,-5.11,3.15,-14.09,30.37
90587,0.01,-0.85,-0.47,-3.89,8.49,-9.07,30.46
90597,-0.00,-0.84,-0.46,-6.00,15.39,0.23,30.51
90607,-0.02,-0.87,-0.43,-9.83,18.55,8.08,30.41
90617,-0.03,-0.93,-0.37,-12.60,20.34,10.85,30.51
90627,-0.02,-0.98,-0.34,-10.81,18.14,10.79,30.41
90637,-0.01,-1.02,-0.34,-7.86,10.56,7.10,30.51
90647,0.00,-1.01,-0.36,-7.60,2.99,-0.63,30.37
90657,-0.00,-1.00,-0.38,-9.91,-6.20,-6.23,30.41
90667,-0.01,-1.00,-0.38,-15.15,-11.76,-8.81,30.37
90677,-0.00,-0.99,-0.39,-19.60,-12.92,-6.87,30.46
90687,0.01,-0.99,-0.39,-21.63,-9.15,-1.33,30.46
90697,0.05,-1.02,-0.38,-21.63,-1.02,5.22,30.46
90707,0.09,-1.05,-0.36,-21.73,5.77,9.51,30.46
90717,0.10,-1.07,-0.33,-21.31,9.69,7.77,30.46
90727,0.10,-1.08,-0.30,-18.95,9.24,0.46,30.51
90737,0.08,-1.06,-0.30,-15.66,7.10,-7.01,30.51
90747,0.03,-1.06,-0.31,-11.42,4.15,-12.50,30.41
90757,-0.02,-1.05,-0.30,-6.18,3.16,-14.17,30.41
90767,-0.06,-1.02,-0.31,-2.17,2.14,-13.16,30.41
90777,-0.08,-0.99,-0.32,0.34,0.96,-11.01,30.46
90787,-0.08,-0.98,-0.34,2.27,-0.09,-8.23,30.37
90797,-0.09,-0.96,-0.35,4.15,-0.05,-6.11,30.55
90807,-0.08,-0.94,-0.38,4.96,0.17,-4.06,30.46
90817,-0.07,-0.89,-0.40,5.05,1.21,-1.05,30.37
90827,-0.06,-0.86,-0.42,3.48,4.52,3.50,30.46
90837,-0.05,-0.84,-0.43,-0.08,6.06,8.23,30.46
90847,-0.04,-0.83,-0.43,-5.97,8.06,10.78,30.41
90857,-0.04,-0.85,-0.39,-10.78,7.94,13.02,30.41
90867,-0.03,-0.91,-0.34,-11.48,7.36,14.27,30.41
90877,0.01,-0.97,-0.31,-7.71,6.64,14.06,30.41
90887,0.02,-1.02,-0.29,-2.95,4.96,11.60,30.51
90897,0.03,-1.08,-0.28,3.15,-0.92,7.91,30.41
90907,0.06,-1.08,-0.34,7.24,-6.26,4.05,30.37
90917,0.06,-1.08,-0.39,7.62,-7.33,2.84,30.46
90927,0.08,-1.05,-0.45,6.47,-6.00,3.76,30.37
90937,0.10,-1.03,-0.47,6.56,1.82,4.14,30.46
90947,0.09,-0.99,-0.46,6.02,4.26,3.86,30.37
90957,0.10,-0.95,-0.48,6.47,0.58,1.07,30.46
90967,0.13,-0.91,-0.53,6.52,-4.40,-5.11,30.51
90977,0.15,-0.89,-0.58,2.73,-9.18,-15.28,30.41
90987,0.11,-0.88,-0.59,-2.43,-15.53,-23.83,30.41
90997,0.07,-0.90,-0.60,-7.86,-20.20,-29.47,30.41
91007,0.02,-0.92,-0.60,-13.66,-23.22,-30.99,30.51
91017,-0.04,-0.93,-0.58,-16.47,-26.38,-29.71,30.41
91027,-0.06,-0.93,-0.56,-16.55,-24.89,-28.00,30.41
91037,-0.04,-0.92,-0.56,-19.28,-24.92,-25.69,30.37
91047,-0.02,-0.86,-0.50,-24.26,-22.23,-23.22,30.46
91057,0.02,-0.81,-0.40,-29.53,-18.11,-20.53,30.55
91067,0.03,-0.79,-0.27,-32.49,-13.47,-18.95,30.46
91077,0.03,-0.78,-0.19,-29.45,-6.52,-14.18,30.37
91087,0.02,-0.81,-0.14,-21.73,4.76,-4.12,30.51
91097,0.03,-0.85,-0.13,-13.98,21.04,8.82,30.41
91107,0.03,-0.91,-0.12,-8.29,38.47,19.42,30.41
91117,-0.00,-1.01,-0.09,-7.53,47.07,21.51,30.32
91127,-0.07,-1.02,-0.05,-8.70,45.33,15.73,30.46
91137,-0.12,-0.97,-0.06,-14.79,32.44,4.70,30.32
91147,-0.14,-0.89,-0.13,-18.15,16.29,-5.18,30.41
91157,-0.16,-0.80,-0.21,-20.89,-1.10,-11.31,30.46
91167,-0.09,-0.76,-0.30,-19.22,-9.31,-8.66,30.46
91177,-0.03,-0.76,-0.43,-13.33,-5.16,0.41,30.37
91187,0.01,-0.83,-0.49,-3.51,8.93,15.88,30.46
91197,0.04,-0.91,-0.53,5.19,27.31,33.77,30.46
91207,0.09,-1.00,-0.56,10.64,40.29,47.02,30.46
91217,0.15,-1.09,-0.54,12.93,47.50,46.95,30.51
91227,0.16,-1.14,-0.47,10.70,38.32,33.11,30.41
91237,0.13,-1.20,-0.40,7.79,13.95,5.48,30.41
91247,0.05,-1.21,-0.37,3.27,-16.20,-24.84,30.51
91257,0.02,-1.17,-0.40,1.31,-41.86,-47.04,30.41
91267,-0.01,-1.12,-0.48,-1.95,-56.27,-56.03,30.41
91277,-0.00,-1.05,-0.59,-2.84,-51.69,-46.95,30.32
91287,0.03,-0.96,-0.73,-0.15,-22.64,-18.60,30.37
91297,0.05,-0.95,-0.79,0.32,13.73,17.71,30.46
91307,0.02,-0.97,-0.77,-3.33,47.56,52.08,30.46
91317,0.02,-1.02,-0.69,-13.76,62.27,73.51,30.46
91327,0.02,-1.10,-0.56,-19.98,57.94,81.16,30.46
91337,0.06,-1.22,-0.44,-22.17,43.94,71.95,30.37
91347,0.10,-1.29,-0.39,-21.69,26.72,55.13,30.41
91357,0.09,-1.34,-0.33,-17.22,8.23,37.79,30.41
91367,0.08,-1.34,-0.30,-11.79,-4.55,23.59,30.41
91377,0.05,-1.31,-0.30,-12.20,-10.67,13.82,30.51
91387,0.04,-1.27,-0.35,-11.63,-14.79,8.24,30.41
91397,0.00,-1.21,-0.40,-11.22,-17.59,4.58,30.51
91407,-0.03,-1.15,-0.47,-12.38,-22.78,6.67,30.41
91417,-0.01,-1.10,-0.55,-12.35,-20.85,15.63,30.46
91427,0.04,-1.05,-0.64,-16.85,3.98,25.73,30.46
91437,0.02,-1.09,-0.58,-23.18,27.25,32.20,30.37
91447,-0.05,-1.21,-0.40,-26.02,36.89,31.66,30.37
91457,-0.10,-1.28,-0.30,-24.53,25.33,23.66,30.46
91467,-0.09,-1.29,-0.26,-16.26,5.51,12.46,30.37
91477,-0.09,-1.29,-0.28,-6.34,-8.69,1.65,30.55
91487,-0.06,-1.26,-0.31,1.80,-18.24,-6.12,30.51
91497,-0.01,-1.19,-0.40,6.44,-16.84,-10.32,30.41
91507,0.01,-1.13,-0.48,9.98,-6.21,-8.32,30.51
91517,-0.00,-1.09,-0.46,14.40,6.50,-2.55,30.41
91527,-0.03,-1.08,-0.48,22.84,20.41,6.14,30.51
91537,-0.04,-1.06,-0.51,31.39,35.10,15.88,30.51
91547,-0.10,-1.06,-0.49,33.80,42.27,23.31,30.41
91557,-0.16,-1.07,-0.43,30.84,36.11,26.12,30.46
91567,-0.15,-1.06,-0.44,26.55,25.98,26.31,30.46
91577,-0.12,-1.05,-0.42,21.56,17.51,21.56,30.46
91587,-0.06,-1.04,-0.43,19.56,14.47,14.79,30.46
91597,-0.01,-1.03,-0.41,22.29,16.06,5.63,30.46
91607,-0.01,-1.02,-0.41,28.17,17.53,-2.58,30.37
91617,-0.02,-1.03,-0.45,31.63,17.80,-5.01,30.37
91627,-0.08,-1.01,-0.46,33.11,18.18,-0.81,30.41
91637,-0.09,-0.98,-0.51,34.05,22.31,8.89,30.41
91647,-0.12,-0.95,-0.54,32.64,28.63,20.50,30.41
91657,-0.12,-0.95,-0.55,30.18,33.86,29.10,30.41
91667,-0.09,-0.95,-0.50,28.14,32.53,33.42,30.41
91677,-0.06,-0.93,-0.45,27.63,28.14,30.32,30.41
91687,-0.03,-0.91,-0.42,27.30,22.49,23.88,30.37
91697,0.01,-0.87,-0.46,27.47,19.37,16.20,30.37
91707,0.02,-0.85,-0.45,25.08,17.97,6.96,30.37
91717,0.02,-0.85,-0.44,20.05,12.89,-3.85,30.46
91727,0.03,-0.86,-0.46,13.28,5.94,-14.81,30.37
91737,-0.00,-0.83,-0.48,4.37,-1.60,-22.95,30.46
91747,-0.03,-0.83,-0.48,-4.20,-4.73,-24.89,30.46
91757,-0.07,-0.82,-0.44,-9.13,-5.51,-21.51,30.51
91767,-0.09,-0.82,-0.42,-10.95,-4.99,-14.12,30.41
91777,-0.08,-0.84,-0.39,-9.92,-3.50,-4.49,30.41
91787,-0.06,-0.84,-0.38,-8.41,-1.65,4.69,30.51
91797,-0.02,-0.86,-0.34,-7.13,-1.42,11.36,30.41
91807,0.00,-0.90,-0.28,-5.83,-0.56,12.73,30.41
91817,0.04,-0.91,-0.29,-6.26,1.76,10.27,30.46
91827,0.05,-0.94,-0.28,-6.87,1.82,5.62,30.46
91837,0.02,-0.96,-0.25,-7.22,0.02,-0.41,30.55
91847,0.00,-0.97,-0.26,-7.33,-0.64,-4.61,30.46
91857,-0.03,-0.99,-0.27,-7.65,0.98,-5.16,30.46
91867,-0.05,-1.01,-0.27,-8.56,1.48,-4.15,30.46
91877,-0.06,-1.00,-0.27,-8.21,1.07,-2.79,30.41
91887,-0.06,-1.01,-0.25,-5.28,1.97,-2.63,30.41
91897,-0.03,-1.04,-0.25,0.72,0.34,-4.00,30.41
91907,-0.01,-1.07,-0.24,5.10,-1.57,-7.19,30.51
91917,0.00,-1.08,-0.23,10.67,-3.59,-11.11,30.41
91927,0.01,-1.09,-0.22,16.35,-5.40,-15.21,30.41
91937,0.02,-1.10,-0.24,20.53,-3.59,-17.73,30.46
91947,0.00,-1.09,-0.24,24.67,-3.68,-18.02,30.37
91957,-0.01,-1.08,-0.25,30.29,-2.08,-16.20,30.37
91967,-0.03,-1.06,-0.26,35.74,-0.81,-12.38,30.55
91977,-0.03,-1.04,-0.27,41.65,0.31,-8.70,30.55
91987,-0.03,-1.03,-0.27,47.33,0.98,-6.02,30.37
91997,-0.03,-1.02,-0.25,53.15,1.44,-4.00,30.51
92007,-0.03,-1.00,-0.25,57.54,1.85,-2.24,30.41
92017,-0.05,-0.99,-0.26,60.23,-0.26,-1.39,30.51
92027,-0.04,-0.97,-0.26,60.72,-1.94,-1.63,30.51
92037,-0.02,-0.97,-0.28,59.79,-4.17,-2.46,30.46
92047,-0.01,-0.97,-0.27,57.22,-6.58,-6.06,30.41
92057,0.00,-0.97,-0.29,52.76,-8.73,-11.11,30.46
92067,0.01,-0.95,-0.28,47.56,-10.43,-16.76,30.37
92077,0.02,-0.92,-0.27,43.02,-11.85,-21.68,30.46
92087,0.01,-0.88,-0.27,38.96,-12.92,-24.18,30.46
92097,0.00,-0.86,-0.25,36.50,-12.15,-25.37,30.46
92107,-0.02,-0.85,-0.21,34.92,-12.75,-24.92,30.46
92117,-0.02,-0.85,-0.20,33.11,-12.08,-22.76,30.41
92127,-0.01,-0.83,-0.17,30.81,-11.82,-19.37,30.41
92137,-0.01,-0.81,-0.13,27.28,-13.40,-14.96,30.41
92147,0.01,-0.79,-0.12,23.88,-13.91,-10.82,30.51
92157,0.02,-0.78,-0.11,21.30,-12.85,-6.79,30.41
92167,0.01,-0.77,-0.12,16.92,-11.51,-3.15,30.46
92177,-0.01,-0.78,-0.13,11.66,-11.11,1.45,30.46
92187,-0.04,-0.79,-0.13,6.31,-11.94,6.70,30.46
92197,-0.04,-0.81,-0.13,1.79,-10.05,11.86,30.46
92207,-0.01,-0.85,-0.09,1.77,-8.20,15.80,30.46
92217,0.01,-0.88,-0.07,5.56,-6.12,16.89,30.46
92227,0.03,-0.89,-0.04,9.34,-7.28,16.00,30.37
92237,0.05,-0.92,-0.01,13.89,-11.37,11.05,30.41
92247,0.09,-0.93,-0.04,21.59,-11.97,4.75,30.51
92257,0.10,-0.94,-0.09,30.03,-11.01,-0.20,30.41
92267,0.08,-0.95,-0.15,35.28,-7.47,-1.73,30.41
92277,0.06,-0.94,-0.19,36.66,-3.85,-0.84,30.41
92287,0.03,-0.94,-0.23,33.63,-2.81,0.58,30.41
92297,0.01,-0.94,-0.22,24.90,-6.12,1.10,30.46
92307,0.02,-0.94,-0.21,17.40,-9.88,-1.04,30.46
92317,0.03,-0.95,-0.19,12.79,-10.32,-4.40,30.46
92327,0.03,-0.98,-0.14,9.36,-11.40,-8.02,30.37
92337,0.01,-1.00,-0.10,7.02,-13.42,-11.88,30.46
92347,0.00,-1.02,-0.05,7.36,-14.52,-17.10,30.46
92357,-0.01,-1.03,-0.02,10.46,-16.38,-20.53,30.46
92367,-0.00,-1.03,-0.01,14.55,-16.67,-22.18,30.51
92377,0.02,-1.02,-0.03,19.19,-14.40,-23.13,30.41
92387,0.03,-1.03,-0.03,22.56,-13.63,-25.30,30.41
92397,0.05,-1.00,-0.05,22.69,-11.71,-27.74,30.41
92407,0.07,-0.98,-0.07,20.90,-10.08,-30.78,30.41
92417,0.07,-0.96,-0.07,17.25,-9.31,-33.39,30.51
92427,0.05,-0.94,-0.06,13.63,-10.89,-34.96,30.46
92437,0.04,-0.92,-0.05,11.31,-11.57,-34.66,30.46
92447,0.02,-0.90,-0.06,8.34,-11.45,-33.07,30.37
92457,0.00,-0.91,-0.02,4.75,-11.91,-30.63,30.46
92467,-0.02,-0.91,0.01,2.31,-13.19,-28.14,30.46
92477,-0.01,-0.91,0.04,2.60,-13.66,-25.33,30.46
92487,0.00,-0.92,0.07,4.41,-13.07,-22.82,30.46
92497,0.03,-0.92,0.08,7.36,-10.73,-21.16,30.41
92507,0.04,-0.93,0.10,9.80,-10.50,-21.02,30.51
92517,0.06,-0.92,0.08,10.89,-9.36,-21.36,30.41
92527,0.06,-0.92,0.09,10.58,-12.53,-22.99,30.41
92537,0.05,-0.91,0.06,11.04,-15.65,-22.98,30.51
92547,0.03,-0.91,0.02,12.09,-18.08,-19.48,30.41
92557,0.03,-0.90,-0.02,13.62,-18.32,-12.47,30.46
92567,0.05,-0.90,-0.04,14.08,-17.07,-3.80,30.46
92577,0.08,-0.90,-0.05,13.69,-14.46,3.91,30.46
92587,0.11,-0.91,-0.06,13.97,-12.69,8.98,30.37
92597,0.14,-0.93,-0.06,13.07,-11.31,11.19,30.46
92607,0.16,-0.96,-0.06,11.91,-10.60,10.53,30.55
92617,0.18,-0.97,-0.06,9.16,-9.59,7.69,30.46
92627,0.18,-0.99,-0.05,7.37,-7.89,4.21,30.51
92637,0.19,-1.01,-0.03,6.34,-5.86,0.37,30.51
92647,0.16,-1.00,-0.01,6.26,-4.29,-3.10,30.41
92657,0.16,-0.99,0.00,6.69,-1.98,-5.56,30.51
92667,0.13,-0.97,0.01,7.82,-0.73,-6.66,30.51
92677,0.11,-0.95,0.00,8.87,0.85,-5.16,30.41
92687,0.10,-0.94,0.01,9.21,2.58,-2.27,30.46
92697,0.10,-0.95,-0.00,8.47,5.15,0.60,30.46
92707,0.10,-0.96,0.00,7.68,6.52,2.38,30.46
92717,0.13,-0.97,0.01,6.43,7.28,2.38,30.55
92727,0.12,-0.99,0.01,5.39,7.27,1.22,30.46
92737,0.11,-1.00,0.01,4.70,6.96,-0.20,30.46
92747,0.10,-1.00,0.03,3.39,5.13,-0.82,30.51
92757,0.08,-0.99,0.02,1.50,4.98,-0.85,30.51
92767,0.06,-0.99,0.03,-0.38,5.10,0.27,30.60
92777,0.04,-0.97,0.04,-1.73,5.74,3.25,30.51
92787,0.05,-0.97,0.06,-1.89,7.59,6.23,30.41
92797,0.03,-0.99,0.08,-1.80,7.31,8.43,30.51
92807,0.03,-0.99,0.09,-1.08,5.66,9.34,30.37
92817,0.03,-1.01,0.10,-0.34,3.42,9.10,30.37
92827,0.04,-1.04,0.11,1.01,1.69,7.98,30.46
92837,0.04,-1.05,0.12,2.00,0.15,6.03,30.46
92847,0.05,-1.05,0.10,3.18,-0.20,3.73,30.46
92857,0.04,-1.04,0.08,4.82,0.64,1.73,30.46
92867,0.05,-1.02,0.07,5.16,1.74,0.53,30.46
92877,0.04,-0.99,0.06,4.43,2.56,0.32,30.41
92887,0.05,-0.97,0.03,2.98,3.63,0.53,30.41
92897,0.04,-0.96,0.05,1.85,2.55,1.36,30.41
92907,0.03,-0.95,0.05,1.34,0.79,2.32,30.41
92917,0.03,-0.96,0.06,1.74,0.52,4.17,30.51
92927,0.04,-0.96,0.05,2.20,-0.37,6.05,30.51
92937,0.05,-0.96,0.05,2.78,0.84,6.98,30.37
92947,0.05,-0.96,0.06,2.75,1.21,6.05,30.46
92957,0.06,-0.96,0.04,2.50,1.63,4.02,30.46
92967,0.07,-0.96,0.03,1.68,1.65,1.30,30.46
92977,0.07,-0.95,0.04,0.43,1.25,-1.63,30.46
92987,0.07,-0.95,0.05,-1.05,0.60,-3.50,30.46
92997,0.06,-0.94,0.05,-1.98,0.32,-4.66,30.41
93007,0.05,-0.93,0.06,-2.50,1.07,-4.79,30.41
93017,0.03,-0.93,0.06,-3.77,2.27,-4.11,30.41
93027,0.02,-0.95,0.06,-5.54,1.88,-2.34,30.41
93037,0.00,-0.95,0.09,-8.50,0.06,-1.42,30.46
93047,0.02,-0.96,0.09,-10.89,-1.39,0.21,30.41
93057,-0.00,-0.96,0.10,-12.40,-3.47,0.92,30.37
93067,0.01,-0.98,0.10,-13.18,-2.34,2.23,30.37
93077,0.02,-0.97,0.09,-14.95,-2.98,3.47,30.37
93087,0.02,-0.99,0.09,-15.31,-4.18,4.72,30.37
93097,0.02,-1.01,0.11,-14.44,-3.54,6.37,30.55
93107,0.02,-1.02,0.11,-13.36,-3.37,8.08,30.51
93117,0.03,-1.06,0.09,-11.71,-2.96,9.95,30.41
93127,0.03,-1.07,0.09,-9.10,-3.31,11.76,30.51
93137,0.02,-1.11,0.08,-6.78,-5.07,13.65,30.41
93147,0.03,-1.12,0.09,-4.73,-6.44,15.10,30.51
93157,0.06,-1.12,0.07,-1.77,-5.74,16.27,30.41
93167,0.07,-1.12,0.08,1.25,-4.11,16.12,30.46
93177,0.09,-1.12,0.07,4.38,-2.35,15.22,30.46
93187,0.11,-1.10,0.07,5.62,-0.96,12.53,30.46
93197,0.12,-1.09,0.06,5.18,-0.79,8.11,30.46
93207,0.12,-1.08,0.05,3.60,-0.95,2.53,30.55
93217,0.13,-1.07,0.05,1.89,-1.04,-3.01,30.46
93227,0.11,-1.06,0.03,0.09,-1.76,-6.90,30.41
93237,0.09,-1.05,0.02,-1.68,-1.85,-8.90,30.51
93247,0.07,-1.06,0.03,-2.99,-1.42,-8.60,30.41
93257,0.07,-1.06,0.04,-3.65,-0.69,-7.51,30.51
93267,0.06,-1.07,0.06,-3.37,-0.43,-6.11,30.51
93277,0.06,-1.07,0.07,-1.63,0.06,-5.62,30.41
93287,0.08,-1.07,0.09,1.92,0.93,-5.22,30.46
93297,0.08,-1.07,0.08,5.80,1.31,-5.30,30.46
93307,0.08,-1.06,0.05,8.78,1.33,-4.53,30.46
93317,0.08,-1.05,0.05,9.36,2.82,-4.23,30.46
93327,0.08,-1.03,0.05,9.76,4.43,-4.09,30.46
93337,0.08,-1.02,0.05,10.34,5.80,-4.18,30.41
93347,0.08,-1.01,0.04,10.64,7.11,-4.15,30.51
93357,0.07,-1.00,0.04,10.18,7.44,-4.12,30.41
93367,0.08,-0.99,0.03,7.95,8.75,-4.37,30.51
93377,0.08,-0.97,0.03,5.69,10.05,-5.76,30.41
93387,0.08,-0.97,0.04,3.53,11.47,-7.91,30.37
93397,0.09,-0.94,0.03,2.70,14.61,-8.66,30.46
93407,0.09,-0.92,0.01,1.34,19.15,-7.62,30.46
93417,0.12,-0.91,0.03,-0.93,25.44,-6.47,30.46
93427,0.10,-0.89,0.05,-3.56,26.05,-6.75,30.46
93437,0.12,-0.91,0.05,-6.98,26.29,-8.79,30.46
93447,0.12,-0.93,0.04,-10.23,24.23,-10.55,30.46
93457,0.09,-0.95,0.04,-12.84,21.53,-10.08,30.41
93467,0.05,-0.98,0.08,-14.27,20.79,-8.14,30.51
93477,0.00,-1.00,0.09,-15.48,18.27,-5.44,30.41
93487,-0.01,-1.04,0.11,-15.18,14.50,-2.18,30.41
93497,-0.02,-1.07,0.15,-13.21,10.60,1.85,30.41
93507,0.00,-1.09,0.16,-9.71,8.31,6.12,30.41
93517,0.03,-1.12,0.18,-4.49,9.22,9.21,30.46
93527,0.04,-1.14,0.18,1.10,10.31,10.82,30.46
93537,0.04,-1.15,0.18,6.23,7.69,10.67,30.46
93547,0.05,-1.16,0.18,10.44,5.15,9.47,30.46
93557,0.07,-1.15,0.15,13.63,4.90,6.75,30.46
93567,0.08,-1.13,0.14,15.48,4.58,3.33,30.46
93577,0.08,-1.12,0.11,15.33,6.44,-0.72,30.41
93587,0.09,-1.09,0.11,14.61,6.78,-6.37,30.41
93597,0.09,-1.07,0.11,13.19,5.92,-11.51,30.51
93607,0.09,-1.04,0.10,10.81,5.07,-15.45,30.41
93617,0.07,-1.01,0.10,9.48,4.85,-18.50,30.41
93627,0.07,-1.01,0.10,9.85,7.54,-18.87,30.51
93637,0.06,-1.00,0.11,11.31,7.25,-19.44,30.46
93647,-0.00,-0.99,0.04,11.91,2.89,-14.66,30.46
93657,0.05,-0.97,0.06,6.44,2.20,-8.31,30.37
93667,0.02,-0.97,0.05,0.90,1.97,-2.85,30.37
93677,0.04,-0.97,0.06,-4.15,4.20,1.40,30.37
93687,0.04,-0.99,0.08,-6.21,3.36,4.63,30.46
93697,0.05,-1.01,0.08,-7.27,1.45,6.82,30.51
93707,0.07,-1.01,0.09,-8.08,0.09,8.73,30.51
93717,0.07,-1.02,0.10,-8.53,0.56,10.43,30.41
93727,0.07,-1.03,0.11,-10.00,1.59,11.76,30.41
93737,0.08,-1.03,0.11,-10.27,1.40,11.19,30.46
93747,0.08,-1.04,0.12,-10.08,1.45,10.11,30.41
93757,0.09,-1.04,0.10,-9.18,2.92,9.24,30.51
93767,0.09,-1.03,0.11,-8.29,3.73,8.58,30.46
93777,0.09,-1.04,0.10,-8.34,2.93,8.08,30.46
93787,0.10,-1.04,0.10,-8.26,2.26,6.50,30.55
93797,0.09,-1.04,0.11,-8.99,1.53,3.82,30.46
93807,0.09,-1.05,0.12,-9.18,2.46,1.50,30.46
93817,0.09,-1.06,0.12,-8.56,1.91,-0.49,30.37
93827,0.08,-1.06,0.13,-6.90,1.74,-1.77,30.51
93837,0.07,-1.06,0.13,-4.15,2.14,-2.38,30.41
93847,0.08,-1.06,0.14,-0.69,3.71,-2.02,30.41
93857,0.08,-1.05,0.12,1.85,4.89,-1.74,30.41
93867,0.06,-1.05,0.11,3.13,5.22,-1.50,30.46
93877,0.06,-1.06,0.09,2.73,4.23,-1.19,30.41
93887,0.07,-1.04,0.10,1.79,4.05,-2.32,30.41
93897,0.07,-1.03,0.11,1.65,2.50,-3.80,30.37
93907,0.09,-1.03,0.10,2.12,3.59,-4.43,30.46
93917,0.09,-1.02,0.11,1.63,2.75,-4.75,30.46
93927,0.09,-1.00,0.10,0.64,1.71,-4.64,30.46
93937,0.09,-1.01,0.11,-0.37,2.27,-5.39,30.46
93947,0.09,-1.00,0.10,-0.55,2.20,-6.06,30.37
93957,0.08,-0.99,0.10,-0.18,2.11,-6.21,30.32
93967,0.08,-0.99,0.11,0.34,2.23,-5.08,30.41
93977,0.08,-0.99,0.10,0.08,2.08,-4.00,30.41
93987,0.07,-0.99,0.10,0.08,2.14,-2.32,30.51
93997,0.08,-0.98,0.08,-0.60,4.00,-0.34,30.51
94007,0.07,-0.99,0.07,-1.19,4.37,2.60,30.51
94017,0.07,-0.99,0.10,-1.74,4.35,4.64,30.41
94027,0.08,-1.00,0.10,-1.77,4.17,5.68,30.46
94037,0.08,-1.01,0.11,-1.39,3.98,5.82,30.46
94047,0.09,-1.01,0.11,-1.28,6.34,5.19,30.37
94057,0.09,-1.01,0.09,-2.66,5.80,5.21,30.46
94067,0.10,-1.00,0.10,-4.75,6.56,4.29,30.46
94077,0.09,-1.01,0.09,-6.87,5.92,2.32,30.46
94087,0.09,-1.02,0.11,-8.41,4.34,-0.06,30.46
94097,0.08,-1.03,0.12,-8.46,3.15,-1.50,30.51
94107,0.08,-1.03,0.13,-7.59,3.54,-2.43,30.51
94117,0.07,-1.04,0.12,-6.21,5.08,-2.35,30.41
94127,0.06,-1.04,0.12,-5.74,3.80,-1.45,30.51
94137,0.06,-1.04,0.11,-6.55,4.23,-0.84,30.41
94147,0.06,-1.03,0.11,-7.40,4.17,-0.09,30.41
94157,0.06,-1.05,0.12,-7.85,4.17,0.38,30.51
94167,0.07,-1.05,0.13,-7.36,3.88,0.31,30.46
94177,0.05,-1.05,0.10,-5.62,2.00,1.62,30.46
