Timestamp,Acce_X,Acce_Y,Acce_Z,Gyro_X,Gyro_Y,Gyro_Z,Temp
82947,0.21,-0.83,0.25,-31.01,14.12,-4.50,32.53
82957,0.18,-0.82,0.24,-34.69,7.27,-5.11,32.62
82967,0.17,-0.82,0.22,-37.63,5.13,-4.05,32.72
82977,0.15,-0.80,0.22,-43.04,-0.12,-2.38,32.58
82987,0.16,-0.79,0.21,-51.44,1.19,-1.11,32.62
82997,0.15,-0.79,0.18,-53.94,-3.24,3.05,32.62
83007,0.16,-0.78,0.22,-56.64,-0.58,6.78,32.62
83017,0.16,-0.79,0.24,-53.02,4.52,12.67,32.58
83027,0.17,-0.78,0.24,-48.63,10.61,16.75,32.62
83037,0.17,-0.76,0.23,-44.75,14.70,21.48,32.53
83047,0.17,-0.76,0.24,-43.08,13.47,23.16,32.53
83057,0.20,-0.77,0.21,-40.05,12.64,23.68,32.58
83067,0.21,-0.79,0.19,-38.89,16.29,22.69,32.62
83077,0.21,-0.84,0.17,-38.92,15.82,19.01,32.62
83087,0.21,-0.86,0.16,-39.79,18.37,14.78,32.53
83097,0.17,-0.89,0.20,-39.30,12.35,11.48,32.58
83107,0.18,-0.90,0.17,-38.96,11.68,9.62,32.62
83117,0.16,-0.92,0.15,-42.08,3.74,7.42,32.53
83127,0.15,-0.88,0.12,-47.98,-4.03,7.56,32.53
83137,0.14,-0.87,0.11,-53.94,-2.67,10.55,32.48
83147,0.14,-0.85,0.10,-56.90,0.18,14.87,32.58
83157,0.15,-0.84,0.09,-56.14,6.23,19.01,32.48
83167,0.17,-0.87,0.10,-52.23,10.12,21.80,32.48
83177,0.20,-0.89,0.08,-48.34,13.92,21.83,32.58
83187,0.21,-0.90,0.08,-48.58,15.57,20.12,32.58
83197,0.21,-0.92,0.08,-53.04,11.30,15.11,32.58
83207,0.18,-0.93,0.07,-59.10,7.88,10.05,32.48
83217,0.15,-0.93,0.06,-65.47,0.06,5.82,32.58
83227,0.13,-0.91,0.03,-71.66,-4.17,4.03,32.58
83237,0.12,-0.90,-0.01,-78.76,-3.65,2.38,32.58
83247,0.11,-0.88,-0.01,-84.49,-1.40,0.37,32.58
83257,0.10,-0.89,0.00,-89.34,-0.58,-1.89,32.58
83267,0.06,-0.91,0.03,-92.78,-1.27,-2.95,32.48
83277,0.05,-0.92,0.08,-94.35,-4.52,-2.50,32.58
83287,0.07,-0.94,0.11,-94.12,-8.46,-2.82,32.58
83297,0.11,-0.93,0.14,-92.35,-9.73,-8.52,32.48
83307,0.12,-0.93,0.15,-86.87,-8.64,-13.65,32.48
83317,0.10,-0.92,0.15,-80.43,-14.66,-19.28,32.58
83327,0.07,-0.88,0.07,-74.34,-18.12,-20.87,32.58
83337,0.04,-0.86,0.01,-69.66,-18.92,-18.64,32.48
83347,0.02,-0.86,-0.07,-65.33,-19.82,-13.02,32.58
83357,0.01,-0.85,-0.13,-61.28,-17.02,-4.08,32.58
83367,0.02,-0.85,-0.19,-59.15,-20.44,5.88,32.58
83377,0.03,-0.88,-0.22,-56.11,-18.90,16.23,32.48
83387,0.04,-0.90,-0.22,-55.05,-16.41,27.66,32.58
83397,0.06,-0.93,-0.22,-54.73,-13.42,38.15,32.58
83407,0.11,-0.97,-0.17,-52.87,-5.30,46.37,32.58
83417,0.15,-1.00,-0.07,-44.35,-1.24,48.20,32.58
83427,0.22,-1.03,-0.04,-29.89,2.08,44.03,32.48
83437,0.28,-1.04,-0.07,-19.11,7.02,34.03,32.58
83447,0.27,-1.02,-0.10,-14.18,5.08,19.79,32.48
83457,0.22,-1.01,-0.13,-15.18,-4.37,5.11,32.58
83467,0.17,-0.99,-0.16,-17.60,-14.12,-6.78,32.48
83477,0.10,-0.99,-0.22,-15.63,-18.23,-11.42,32.58
83487,0.05,-0.99,-0.28,-12.95,-17.47,-9.27,32.48
83497,-0.05,-1.02,-0.35,-13.88,-18.70,1.68,32.58
83507,-0.11,-1.02,-0.39,-20.24,-18.63,19.30,32.58
83517,-0.12,-1.03,-0.40,-25.07,-17.15,39.97,32.67
83527,-0.07,-1.05,-0.40,-24.70,-5.24,59.13,32.48
83537,0.05,-1.09,-0.36,-20.85,10.20,71.13,32.58
83547,0.13,-1.13,-0.25,-17.34,17.63,72.87,32.58
83557,0.21,-1.16,-0.21,-16.50,15.34,64.76,32.44
83567,-0.05,-1.13,0.04,-16.03,-13.82,45.63,32.53
83577,0.26,-1.18,-0.15,-7.97,-10.90,32.17,32.53
83587,0.27,-1.15,-0.18,-8.00,-12.03,17.05,32.53
83597,0.24,-1.06,-0.14,-9.04,-11.83,6.52,32.44
83607,0.20,-1.09,-0.22,-6.78,-8.81,-1.63,32.53
83617,0.19,-1.10,-0.30,-8.29,2.20,-6.35,32.53
83627,0.17,-1.11,-0.39,-18.79,9.59,-13.15,32.53
83637,0.12,-1.08,-0.43,-34.27,17.69,-16.38,32.53
83647,0.10,-1.10,-0.39,-40.66,22.99,-14.82,32.53
83657,0.06,-1.13,-0.32,-36.29,24.41,-9.51,32.53
83667,0.05,-1.16,-0.27,-28.37,27.08,-1.40,32.53
83677,0.06,-1.17,-0.18,-16.75,24.14,5.02,32.53
83687,0.08,-1.17,-0.15,-2.81,17.47,8.89,32.53
83697,0.10,-1.18,-0.19,4.43,18.11,10.87,32.53
83707,0.09,-1.17,-0.21,6.21,15.30,11.50,32.53
83717,0.07,-1.14,-0.21,6.61,11.57,11.79,32.53
83727,0.07,-1.11,-0.17,9.11,7.07,10.93,32.53
83737,0.08,-1.11,-0.12,14.52,4.40,8.63,32.62
83747,0.10,-1.10,-0.13,22.66,2.32,4.20,32.48
83757,0.09,-1.04,-0.11,30.89,4.95,2.11,32.53
83767,0.09,-1.04,-0.18,34.87,15.83,3.16,32.53
83777,0.02,-1.03,-0.21,38.20,11.34,2.78,32.53
83787,0.01,-0.98,-0.33,28.21,7.66,1.82,32.48
83797,-0.02,-0.97,-0.33,17.45,7.47,0.70,32.44
83807,-0.04,-0.98,-0.31,10.53,6.29,1.88,32.53
83817,-0.07,-1.02,-0.23,7.39,-4.67,2.79,32.44
83827,-0.08,-1.06,-0.18,10.00,-10.00,6.72,32.48
83837,-0.02,-1.06,-0.09,14.32,-7.97,13.51,32.44
83847,-0.07,-1.16,-0.02,27.48,7.02,24.52,32.53
83857,0.04,-1.20,-0.09,42.32,10.47,30.15,32.53
83867,0.10,-1.24,-0.09,53.13,27.25,29.83,32.58
83877,0.12,-1.27,-0.05,64.78,29.53,23.73,32.58
83887,0.15,-1.30,-0.11,70.58,25.36,14.73,32.58
83897,0.12,-1.29,-0.19,60.15,8.70,3.59,32.48
83907,0.10,-1.26,-0.28,47.73,-5.24,-5.34,32.48
83917,0.06,-1.23,-0.29,33.04,-15.36,-10.96,32.48
83927,0.04,-1.21,-0.26,18.11,-33.91,-15.27,32.58
83937,-0.02,-1.20,-0.19,13.80,-45.37,-14.58,32.48
83947,-0.03,-1.19,-0.13,13.85,-49.47,-9.02,32.58
83957,-0.02,-1.19,-0.04,23.02,-50.93,-2.84,32.48
83967,0.02,-1.20,-0.00,36.35,-45.53,2.99,32.48
83977,0.05,-1.19,0.01,47.74,-32.60,6.32,32.48
83987,0.08,-1.19,0.01,57.40,-10.92,9.10,32.48
83997,0.11,-1.19,0.01,61.50,3.71,6.43,32.48
84007,0.14,-1.18,-0.02,62.85,14.23,-0.73,32.48
84017,0.06,-1.15,-0.01,60.43,18.66,-5.91,32.48
84027,-0.06,-1.11,0.01,62.02,3.51,-7.83,32.58
84037,-0.08,-1.08,-0.11,59.27,-12.23,-6.14,32.58
84047,-0.07,-1.04,-0.23,50.67,-20.90,-3.45,32.48
84057,-0.02,-0.99,-0.26,39.21,-20.73,-0.06,32.48
84067,0.03,-1.02,-0.24,32.09,-3.97,4.69,32.48
84077,0.05,-1.04,-0.19,26.55,19.53,9.34,32.48
84087,0.05,-1.06,-0.07,24.06,38.63,12.67,32.58
84097,-0.01,-1.10,0.02,28.96,21.54,10.03,32.48
84107,0.03,-1.07,-0.02,27.39,23.50,9.80,32.39
84117,-0.01,-1.10,0.08,27.28,15.08,7.13,32.48
84127,0.01,-1.11,0.03,29.92,11.25,8.14,32.58
84137,0.01,-1.09,-0.02,25.24,24.75,10.12,32.44
84147,0.00,-1.08,-0.02,22.03,30.84,10.09,32.53
84157,-0.00,-1.05,-0.02,20.02,44.53,15.36,32.44
84167,-0.00,-1.07,0.06,20.84,39.85,14.67,32.53
84177,-0.01,-1.07,0.05,19.57,27.63,10.41,32.44
84187,-0.00,-1.06,0.02,17.73,14.40,5.79,32.44
84197,-0.00,-1.05,0.02,13.92,3.60,2.64,32.44
84207,0.00,-1.04,0.02,12.27,3.95,3.11,32.44
84217,-0.03,-1.04,0.04,12.87,5.13,6.52,32.44
84227,-0.02,-1.03,0.02,11.71,11.36,10.79,32.62
84237,-0.03,-1.02,-0.01,9.15,11.88,13.54,32.53
84247,0.00,-1.02,-0.05,3.47,7.59,15.24,32.44
84257,0.03,-1.02,-0.09,-5.53,10.32,16.12,32.53
84267,0.02,-1.05,-0.00,-10.98,9.62,17.05,32.44
84277,0.05,-1.07,0.01,-13.82,12.31,18.44,32.48
84287,0.06,-1.08,0.05,-14.06,14.60,20.26,32.44
84297,0.08,-1.10,0.08,-12.08,19.73,23.19,32.53
84307,0.12,-1.11,0.08,-8.05,29.79,25.62,32.44
84317,0.13,-1.12,0.07,-3.08,36.55,25.91,32.58
84327,0.14,-1.14,0.05,-1.24,39.24,22.96,32.53
84337,0.16,-1.15,0.06,-3.33,34.27,14.63,32.44
84347,0.14,-1.15,0.08,-7.44,22.02,3.65,32.53
84357,0.13,-1.15,0.11,-11.28,7.53,-5.40,32.48
84367,0.10,-1.15,0.14,-9.69,0.15,-10.58,32.48
84377,0.08,-1.14,0.14,-7.34,3.76,-12.21,32.39
84387,0.05,-1.15,0.15,-3.97,9.80,-12.43,32.39
84397,0.05,-1.15,0.14,2.34,16.69,-12.31,32.48
84407,0.01,-1.14,0.16,8.26,18.47,-13.34,32.48
84417,-0.01,-1.13,0.15,12.95,17.16,-15.62,32.48
84427,-0.03,-1.12,0.13,14.12,14.12,-18.46,32.58
84437,-0.05,-1.09,0.10,13.69,10.66,-20.82,32.48
84447,-0.06,-1.06,0.06,11.59,9.22,-21.76,32.48
84457,-0.07,-1.04,0.03,9.50,8.24,-21.97,32.48
84467,-0.08,-1.03,0.02,4.23,7.57,-23.63,32.48
84477,-0.12,-1.02,0.02,1.16,6.92,-21.80,32.48
84487,-0.11,-1.02,0.02,1.18,12.23,-18.55,32.48
84497,-0.13,-1.02,0.04,1.42,17.27,-13.42,32.48
84507,-0.14,-1.03,0.05,3.05,19.62,-7.11,32.58
84517,-0.11,-1.04,0.06,5.88,17.57,-3.05,32.48
84527,-0.08,-1.05,0.05,5.82,15.57,-1.97,32.48
84537,-0.07,-1.04,0.05,5.28,10.02,-3.74,32.48
84547,-0.08,-1.03,0.05,4.82,2.12,-6.60,32.48
84557,-0.09,-1.03,0.02,2.29,-1.10,-8.31,32.58
84567,-0.09,-1.02,0.01,-1.07,-2.60,-7.83,32.58
84577,-0.09,-1.04,0.01,-4.90,-0.29,-6.08,32.58
84587,-0.10,-1.04,0.01,-8.63,3.07,-2.99,32.48
84597,-0.10,-1.04,0.04,-11.19,8.08,1.48,32.58
84607,-0.09,-1.06,0.10,-11.19,8.78,5.18,32.48
84617,-0.07,-1.07,0.09,-9.68,5.53,7.56,32.48
84627,-0.04,-1.07,0.09,-9.60,5.82,9.10,32.58
84637,-0.01,-1.07,0.09,-10.58,4.09,8.09,32.39
84647,0.02,-1.07,0.07,-11.44,5.31,6.47,32.58
84657,0.01,-1.06,0.07,-12.92,6.99,4.58,32.48
84667,0.00,-1.06,0.07,-14.60,4.55,2.81,32.58
84677,0.01,-1.07,0.07,-15.15,0.41,1.47,32.58
84687,0.01,-1.06,0.07,-15.85,-2.31,0.34,32.53
84697,0.01,-1.07,0.06,-15.89,-2.50,0.34,32.53
84707,0.00,-1.07,0.09,-14.29,-3.76,0.61,32.44
84717,0.02,-1.08,0.10,-12.11,-4.47,0.58,32.44
84727,0.01,-1.08,0.10,-10.12,-5.89,0.27,32.53
84737,0.02,-1.08,0.09,-8.02,-10.20,-1.16,32.44
84747,0.02,-1.08,0.08,-8.55,-11.94,-2.60,32.44
84757,0.01,-1.07,0.08,-8.76,-12.72,-3.10,32.53
84767,0.01,-1.08,0.07,-9.18,-11.33,-2.75,32.53
84777,0.00,-1.07,0.07,-9.22,-10.50,-2.24,32.44
84787,0.01,-1.07,0.05,-9.51,-9.40,-1.83,32.44
84797,-0.00,-1.08,0.08,-9.10,-11.57,-2.55,32.53
84807,0.00,-1.08,0.06,-8.99,-11.65,-1.68,32.34
84817,-0.00,-1.09,0.07,-9.02,-11.56,-0.98,32.53
84827,-0.00,-1.08,0.06,-9.13,-7.89,0.32,32.53
84837,-0.00,-1.09,0.07,-9.05,-5.68,1.45,32.44
84847,0.01,-1.09,0.08,-8.85,-7.18,2.05,32.44
84857,0.02,-1.09,0.07,-8.15,-8.02,1.97,32.44
84867,0.02,-1.09,0.05,-8.21,-8.49,1.62,32.53
84877,0.04,-1.09,0.05,-8.75,-10.38,0.17,32.44
84887,0.05,-1.09,0.03,-9.05,-12.69,-1.77,32.53
84897,0.06,-1.10,0.01,-10.73,-14.18,-5.40,32.53
84907,0.04,-1.07,0.03,-14.31,-11.88,-4.87,32.44
84917,0.02,-1.08,0.03,-13.60,-13.05,-5.95,32.53
84927,0.04,-1.07,0.01,-15.22,-15.08,-7.08,32.44
84937,0.03,-1.07,-0.01,-16.29,-14.06,-8.15,32.53
84947,0.03,-1.09,-0.02,-16.85,-10.69,-9.65,32.53
84957,0.02,-1.05,-0.02,-19.85,-13.40,-9.02,32.44
84967,0.02,-1.06,-0.02,-22.43,-6.11,-6.87,32.53
84977,0.01,-1.06,-0.01,-23.02,-2.11,-5.04,32.44
84987,0.05,-1.05,0.00,-20.46,0.02,-2.82,32.53
84997,0.00,-1.08,0.04,-17.16,-5.59,-2.12,32.53
85007,0.02,-1.08,0.01,-16.41,-6.70,-2.09,32.53
85017,0.01,-1.08,0.01,-16.75,-7.02,-2.32,32.53
85027,0.04,-1.08,-0.01,-18.21,-6.08,-2.67,32.53
85037,0.03,-1.09,-0.00,-20.87,-6.32,-3.28,32.44
85047,0.02,-1.08,0.01,-23.82,-4.09,-3.79,32.48
85057,0.01,-1.09,0.01,-24.66,-2.99,-3.80,32.53
85067,0.03,-1.09,0.02,-24.40,0.35,-4.12,32.53
85077,0.01,-1.10,0.04,-25.53,0.60,-4.11,32.53
85087,0.01,-1.10,0.03,-25.59,3.62,-3.04,32.48
85097,0.01,-1.10,0.02,-26.70,3.62,-2.98,32.44
85107,0.01,-1.09,-0.02,-28.43,9.56,-1.10,32.44
85117,-0.01,-1.09,0.01,-29.77,13.62,1.50,32.53
85127,-0.02,-1.10,0.01,-30.20,18.44,3.57,32.48
85137,-0.01,-1.09,0.02,-28.73,23.15,5.19,32.53
85147,-0.03,-1.10,0.03,-25.89,22.64,6.63,32.53
85157,-0.02,-1.09,0.01,-24.56,20.82,6.58,32.53
85167,-0.02,-1.11,0.03,-22.20,16.66,6.69,32.58
85177,0.00,-1.10,0.06,-16.79,3.18,6.11,32.53
85187,0.04,-1.09,0.04,-12.60,-4.66,3.19,32.53
85197,0.05,-1.12,0.03,-7.28,-12.78,-3.33,32.44
85207,0.05,-1.11,-0.01,-5.37,-16.44,-6.85,32.58
85217,0.03,-1.10,-0.03,-4.35,-12.44,-5.71,32.53
85227,0.01,-1.08,-0.02,-1.88,-5.94,-1.50,32.44
85237,0.02,-1.07,-0.05,0.53,4.27,3.02,32.53
85247,0.03,-1.07,-0.06,2.85,11.65,6.50,32.48
85257,0.05,-1.07,-0.06,4.79,16.02,6.78,32.53
85267,0.06,-1.07,-0.07,4.11,14.90,4.52,32.48
85277,0.06,-1.07,-0.08,0.46,11.22,0.40,32.48
85287,0.04,-1.08,-0.06,-3.27,0.17,-5.34,32.48
85297,0.04,-1.08,-0.08,-8.08,-11.08,-9.73,32.48
85307,0.04,-1.07,-0.09,-12.98,-18.23,-12.26,32.48
85317,0.05,-1.06,-0.12,-16.32,-16.67,-12.41,32.58
85327,0.05,-1.06,-0.13,-18.41,-7.94,-9.82,32.58
85337,0.04,-1.06,-0.13,-20.26,3.18,-5.79,32.48
85347,0.03,-1.07,-0.11,-20.09,11.88,-1.44,32.48
85357,0.04,-1.07,-0.11,-19.31,19.34,2.41,32.58
85367,0.05,-1.08,-0.11,-19.37,25.69,3.79,32.48
85377,0.04,-1.10,-0.08,-21.04,23.76,1.89,32.48
85387,0.03,-1.09,-0.04,-23.45,14.92,-0.96,32.48
85397,0.03,-1.09,-0.05,-24.09,4.20,-3.66,32.48
85407,0.04,-1.07,-0.07,-24.78,1.05,-5.07,32.48
85417,0.04,-1.07,-0.06,-23.51,1.48,-4.92,32.58
85427,0.02,-1.05,-0.07,-21.50,7.91,-1.42,32.48
85437,0.00,-1.03,-0.08,-18.15,18.63,4.40,32.39
85447,0.00,-1.03,-0.08,-12.96,29.68,10.56,32.58
85457,-0.00,-1.02,-0.08,-8.73,37.51,16.50,32.48
85467,0.01,-1.02,-0.10,-7.44,39.74,19.54,32.58
85477,0.01,-1.03,-0.11,-9.48,37.71,19.18,32.48
85487,0.02,-1.03,-0.10,-13.37,32.06,16.73,32.58
85497,0.03,-1.03,-0.11,-19.24,24.40,12.52,32.48
85507,0.03,-1.03,-0.10,-25.79,17.59,8.09,32.48
85517,0.02,-1.03,-0.10,-30.05,12.50,5.48,32.48
85527,0.02,-1.02,-0.09,-31.95,11.97,5.16,32.48
85537,-0.00,-1.01,-0.08,-31.83,12.67,6.76,32.58
85547,-0.00,-1.00,-0.07,-30.00,12.90,9.19,32.48
85557,0.01,-1.01,-0.08,-27.91,14.82,11.73,32.39
85567,0.01,-1.01,-0.05,-24.06,15.60,14.85,32.58
85577,0.02,-1.02,-0.02,-19.39,11.42,15.91,32.48
85587,0.02,-1.02,-0.03,-17.53,11.21,16.02,32.58
85597,0.02,-1.03,-0.01,-15.85,5.63,15.07,32.48
85607,0.04,-1.03,-0.01,-13.73,-3.66,11.05,32.58
85617,0.04,-1.03,-0.03,-11.76,-8.08,7.24,32.58
85627,0.04,-1.02,-0.06,-11.71,-12.31,4.73,32.58
85637,0.04,-1.02,-0.07,-12.93,-10.99,3.65,32.58
85647,0.04,-1.02,-0.06,-12.78,-8.21,4.40,32.58
85657,0.03,-1.02,-0.08,-12.63,-4.02,5.85,32.58
85667,0.03,-1.02,-0.09,-11.95,-0.11,7.34,32.53
85677,0.03,-1.03,-0.09,-11.25,-0.31,7.79,32.53
85687,0.03,-1.03,-0.10,-10.69,-1.47,7.27,32.53
85697,0.04,-1.04,-0.09,-11.13,-3.44,5.28,32.53
85707,0.05,-1.05,-0.11,-11.74,-5.27,3.28,32.44
85717,0.04,-1.05,-0.11,-12.63,-4.35,2.26,32.53
85727,0.03,-1.05,-0.13,-14.63,-4.63,1.50,32.53
85737,0.05,-1.04,-0.14,-17.68,-2.76,0.63,32.53
85747,0.05,-1.04,-0.16,-19.95,-0.24,-0.20,32.44
85757,0.04,-1.03,-0.17,-22.41,2.15,-0.38,32.62
85767,0.03,-1.03,-0.18,-22.87,4.15,1.50,32.53
85777,0.02,-1.03,-0.14,-21.13,0.85,3.88,32.53
85787,0.04,-1.03,-0.15,-18.90,-1.40,4.47,32.44
85797,0.05,-1.04,-0.16,-15.91,-0.31,4.92,32.53
85807,0.08,-1.07,-0.15,-10.32,-0.27,3.34,32.53
85817,0.09,-1.08,-0.18,-9.63,2.05,-0.18,32.53
85827,0.08,-1.09,-0.19,-12.55,2.38,-5.24,32.53
85837,0.05,-1.10,-0.19,-17.24,-1.39,-11.05,32.53
85847,0.05,-1.11,-0.23,-23.25,0.17,-15.92,32.53
85857,0.03,-1.12,-0.19,-27.11,1.77,-17.77,32.53
85867,0.01,-1.12,-0.17,-24.32,2.38,-17.82,32.44
85877,0.00,-1.13,-0.14,-17.44,1.25,-16.43,32.53
85887,0.01,-1.14,-0.12,-9.57,-1.08,-15.92,32.53
85897,0.03,-1.14,-0.12,-4.12,-0.99,-17.18,32.58
85907,0.03,-1.13,-0.09,-0.26,-1.07,-19.31,32.53
85917,0.03,-1.13,-0.09,3.25,-1.51,-22.75,32.53
85927,0.03,-1.12,-0.09,5.39,-0.73,-25.80,32.62
85937,0.01,-1.11,-0.09,7.45,0.29,-27.54,32.58
85947,-0.01,-1.09,-0.11,9.66,1.71,-26.34,32.53
85957,-0.01,-1.07,-0.11,13.21,5.73,-24.03,32.53
85967,-0.01,-1.07,-0.13,17.28,9.05,-21.34,32.44
85977,-0.02,-1.07,-0.12,19.21,9.33,-19.31,32.48
85987,-0.02,-1.07,-0.12,19.11,6.70,-17.53,32.53
85997,-0.01,-1.06,-0.12,18.76,3.74,-16.72,32.58
86007,-0.00,-1.05,-0.11,17.83,0.46,-15.83,32.67
86017,-0.01,-1.04,-0.12,17.62,-1.60,-13.18,32.48
86027,0.00,-1.03,-0.13,17.65,-0.66,-8.99,32.58
86037,0.01,-1.03,-0.15,17.71,3.95,-5.10,32.58
86047,0.03,-1.02,-0.16,17.37,10.03,-1.02,32.58
86057,0.03,-1.02,-0.14,16.21,12.90,1.19,32.58
86067,0.04,-1.01,-0.12,15.07,12.15,1.40,32.48
86077,0.04,-1.01,-0.11,13.76,12.20,1.97,32.48
86087,0.03,-0.99,-0.09,12.18,12.12,2.90,32.48
86097,0.03,-0.97,-0.09,12.85,16.41,5.77,32.58
86107,0.02,-0.97,-0.07,16.29,16.61,9.88,32.58
86117,0.01,-0.96,-0.07,19.86,9.40,13.13,32.48
86127,0.02,-0.96,-0.08,22.05,7.94,14.64,32.58
86137,0.01,-1.00,-0.08,25.44,3.60,16.75,32.48
86147,0.02,-1.01,-0.13,25.01,3.27,17.97,32.58
86157,0.02,-1.02,-0.10,23.59,2.20,20.14,32.48
86167,0.05,-1.03,-0.09,24.02,3.77,22.55,32.58
86177,0.08,-1.04,-0.10,25.89,9.36,23.21,32.58
86187,0.09,-1.04,-0.08,28.23,9.51,21.74,32.58
86197,0.09,-1.04,-0.10,29.63,6.52,18.11,32.48
86207,0.12,-1.03,-0.10,29.24,5.88,12.98,32.58
86217,0.13,-1.03,-0.09,27.71,4.43,4.63,32.58
86227,0.14,-1.02,-0.10,25.57,2.85,-3.97,32.58
86237,0.14,-1.00,-0.11,22.72,4.02,-11.88,32.48
86247,0.12,-0.98,-0.10,19.94,3.92,-19.83,32.48
86257,0.11,-0.95,-0.12,16.93,3.98,-26.55,32.58
86267,0.09,-0.94,-0.13,12.47,2.92,-32.29,32.53
86277,0.05,-0.92,-0.11,7.98,-1.01,-34.50,32.53
86287,0.04,-0.90,-0.11,4.64,-5.08,-35.34,32.53
86297,0.03,-0.88,-0.13,-0.78,-5.16,-34.46,32.53
86307,0.03,-0.87,-0.14,-6.82,-5.80,-33.51,32.53
86317,0.02,-0.87,-0.12,-12.84,-4.93,-31.91,32.53
86327,0.03,-0.86,-0.11,-17.07,-3.77,-30.31,32.53
86337,0.03,-0.89,-0.09,-19.01,-2.40,-28.27,32.53
86347,0.03,-0.89,-0.09,-21.25,-0.50,-24.55,32.44
86357,0.03,-0.89,-0.07,-23.02,-0.29,-21.15,32.53
86367,0.04,-0.90,-0.07,-27.05,2.50,-18.18,32.53
86377,0.03,-0.91,-0.07,-31.66,2.92,-14.81,32.53
86387,0.03,-0.91,-0.07,-35.48,3.66,-10.52,32.53
86397,0.04,-0.92,-0.08,-39.45,6.12,-6.34,32.53
86407,0.05,-0.93,-0.07,-43.37,10.21,-3.56,32.53
86417,0.05,-0.94,-0.04,-45.01,10.37,-1.65,32.53
86427,0.07,-0.95,-0.04,-44.21,7.48,-0.56,32.48
86437,0.09,-0.97,-0.03,-42.27,7.94,-1.05,32.44
86447,0.08,-0.98,-0.02,-39.19,3.68,-2.63,32.53
86457,0.07,-0.98,-0.04,-38.64,-1.27,-2.78,32.53
86467,0.08,-0.98,-0.06,-40.26,-4.08,-2.53,32.48
86477,0.07,-0.98,-0.08,-41.51,-4.96,-1.02,32.53
86487,0.06,-0.98,-0.07,-41.66,-4.82,1.22,32.53
86497,0.07,-0.98,-0.08,-41.85,-3.15,3.80,32.58
86507,0.08,-0.99,-0.06,-41.51,-4.26,5.22,32.48
86517,0.10,-0.98,-0.04,-38.98,-3.91,6.37,32.58
86527,0.13,-0.99,-0.01,-34.95,-4.11,5.28,32.58
86537,0.16,-0.99,-0.00,-29.30,-0.93,3.11,32.58
86547,0.17,-1.00,0.01,-22.60,0.11,0.06,32.48
86557,0.17,-0.99,-0.02,-17.33,1.97,-3.27,32.58
86567,0.16,-0.98,-0.04,-15.01,2.76,-5.91,32.58
86577,0.14,-0.96,-0.04,-12.81,2.76,-7.65,32.48
86587,0.14,-0.95,-0.05,-9.95,3.86,-8.99,32.48
86597,0.13,-0.93,-0.08,-7.37,6.63,-10.43,32.48
86607,0.13,-0.91,-0.10,-5.45,9.25,-11.89,32.48
86617,0.12,-0.89,-0.13,-5.88,9.77,-12.81,32.58
86627,0.11,-0.87,-0.14,-6.85,10.60,-12.43,32.39
86637,0.10,-0.86,-0.16,-7.56,12.60,-11.30,32.58
86647,0.11,-0.86,-0.16,-8.85,14.29,-10.32,32.58
86657,0.10,-0.87,-0.16,-10.81,14.72,-9.94,32.48
86667,0.09,-0.87,-0.15,-11.11,14.09,-8.95,32.48
86677,0.08,-0.88,-0.15,-10.61,14.37,-6.21,32.39
86687,0.08,-0.89,-0.15,-10.72,14.02,-3.71,32.58
86697,0.05,-0.89,-0.15,-10.23,12.84,-0.11,32.48
86707,0.05,-0.90,-0.15,-9.30,14.21,4.66,32.58
86717,0.06,-0.92,-0.14,-6.69,16.14,8.90,32.48
86727,0.08,-0.93,-0.15,-3.71,18.52,11.44,32.48
86737,0.09,-0.95,-0.15,-1.76,19.54,12.90,32.48
86747,0.09,-0.96,-0.15,-0.40,18.38,13.30,32.44
86757,0.09,-0.97,-0.17,0.34,16.53,12.52,32.53
86767,0.09,-0.97,-0.17,-0.18,13.62,10.34,32.53
86777,0.08,-0.99,-0.17,-1.25,11.10,8.43,32.53
86787,0.08,-0.99,-0.17,-1.85,8.63,7.04,32.44
86797,0.09,-1.00,-0.17,-1.31,8.50,5.19,32.53
86807,0.08,-1.00,-0.17,-1.18,9.07,3.80,32.53
86817,0.08,-1.01,-0.15,0.58,8.75,3.21,32.53
86827,0.08,-1.02,-0.15,3.07,8.95,2.67,32.62
86837,0.07,-1.02,-0.13,5.31,7.45,2.79,32.44
86847,0.07,-1.01,-0.15,6.44,5.83,3.27,32.53
86857,0.07,-1.00,-0.14,6.92,5.01,4.12,32.53
86867,0.07,-1.00,-0.13,8.46,4.40,4.93,32.44
86877,0.05,-1.00,-0.12,11.45,3.82,6.98,32.44
86887,0.05,-1.00,-0.14,14.87,5.15,10.79,32.53
86897,0.08,-1.00,-0.18,16.64,7.22,13.07,32.53
86907,0.10,-0.99,-0.19,13.71,8.23,13.08,32.44
86917,0.12,-0.99,-0.17,10.38,6.29,11.71,32.48
86927,0.13,-0.99,-0.16,7.89,4.40,8.70,32.44
86937,0.14,-1.00,-0.12,6.93,3.65,5.04,32.53
86947,0.12,-1.00,-0.11,7.59,2.60,1.44,32.44
86957,0.09,-1.00,-0.09,9.57,1.11,-0.17,32.48
86967,0.08,-0.99,-0.08,12.72,0.21,0.89,32.53
86977,0.07,-1.00,-0.10,16.78,3.48,3.47,32.48
86987,0.06,-0.99,-0.12,18.70,5.63,6.89,32.39
86997,0.07,-0.99,-0.15,17.21,8.08,9.36,32.48
87007,0.09,-1.01,-0.14,15.31,7.89,10.11,32.48
87017,0.12,-1.01,-0.15,12.93,8.58,9.31,32.58
87027,0.13,-1.02,-0.15,9.85,8.40,6.85,32.39
87037,0.15,-1.02,-0.14,6.79,7.80,3.59,32.39
87047,0.15,-1.02,-0.14,3.36,5.85,-0.49,32.39
87057,0.15,-1.01,-0.14,-0.38,3.82,-4.92,32.48
87067,0.14,-1.01,-0.14,-3.34,1.39,-8.52,32.58
87077,0.15,-1.00,-0.12,-4.76,1.19,-11.62,32.58
87087,0.12,-1.00,-0.10,-5.73,2.40,-12.96,32.48
87097,0.12,-1.00,-0.09,-4.64,3.51,-13.59,32.48
87107,0.11,-1.00,-0.09,-4.31,4.38,-13.77,32.48
87117,0.10,-0.99,-0.10,-4.15,3.73,-13.02,32.48
87127,0.09,-0.99,-0.08,-3.73,3.82,-11.79,32.48
87137,0.09,-0.97,-0.09,-3.83,4.72,-10.67,32.39
87147,0.09,-0.97,-0.09,-3.77,5.36,-9.22,32.48
87157,0.09,-0.97,-0.09,-4.15,6.79,-8.14,32.58
87167,0.09,-0.97,-0.08,-3.21,7.79,-7.53,32.58
87177,0.10,-0.98,-0.09,-3.80,4.08,-7.91,32.58
87187,0.09,-0.98,-0.06,-2.96,2.32,-8.20,32.48
87197,0.09,-0.97,-0.08,-2.14,2.69,-7.11,32.48
87207,0.09,-0.97,-0.09,-1.86,5.22,-6.08,32.48
87217,0.08,-0.97,-0.09,-2.15,7.19,-4.61,32.39
87227,0.07,-0.97,-0.09,-3.08,7.39,-3.40,32.44
87237,0.07,-0.98,-0.07,-3.89,6.52,-3.16,32.53
87247,0.08,-0.98,-0.06,-4.08,5.56,-2.66,32.53
87257,0.08,-0.99,-0.06,-3.91,4.87,-2.70,32.53
87267,0.07,-0.99,-0.04,-3.07,3.77,-2.38,32.53
87277,0.08,-1.00,-0.05,-1.13,3.56,-2.03,32.44
87287,0.07,-0.99,-0.07,0.12,2.90,-1.79,32.53
87297,0.08,-1.00,-0.08,0.21,2.00,-1.16,32.53
87307,0.08,-1.00,-0.08,-0.66,0.96,-0.55,32.62
87317,0.09,-1.01,-0.10,-1.08,0.32,0.47,32.44
87327,0.09,-1.01,-0.11,-2.11,1.27,1.18,32.53
87337,0.09,-1.02,-0.10,-3.15,0.66,1.27,32.44
87347,0.10,-1.04,-0.12,-3.77,-0.81,1.21,32.44
87357,0.12,-1.04,-0.12,-6.09,-1.25,0.61,32.44
87367,0.12,-1.04,-0.12,-8.09,-1.86,0.47,32.44
87377,0.13,-1.04,-0.10,-8.50,-1.31,0.61,32.53
87387,0.13,-1.05,-0.08,-8.00,-0.63,1.02,32.53
87397,0.12,-1.07,-0.06,-5.85,-0.32,1.40,32.53
87407,0.13,-1.08,-0.05,-1.98,0.52,2.55,32.48
87417,0.14,-1.09,-0.09,1.01,4.11,3.97,32.44
87427,0.13,-1.07,-0.08,1.76,3.22,3.91,32.44
87437,0.14,-1.08,-0.09,1.21,1.91,4.06,32.53
87447,0.15,-1.07,-0.09,1.22,1.59,3.19,32.48
87457,0.15,-1.07,-0.08,2.11,1.95,2.27,32.44
87467,0.16,-1.06,-0.09,3.34,3.04,1.44,32.53
87477,0.15,-1.07,-0.08,4.41,2.38,0.29,32.39
87487,0.14,-1.05,-0.11,3.92,3.56,-0.73,32.48
87497,0.13,-1.04,-0.11,2.84,3.69,-1.21,32.58
87507,0.12,-1.03,-0.10,2.70,2.38,-0.89,32.48
87517,0.15,-1.01,-0.13,0.90,5.44,-1.10,32.48
87527,0.14,-1.02,-0.11,-1.08,5.50,-2.63,32.48
87537,0.14,-1.01,-0.09,-1.91,5.05,-3.82,32.58
87547,0.15,-1.00,-0.07,-2.02,4.17,-5.19,32.48
87557,0.15,-0.99,-0.09,-2.08,6.66,-5.69,32.48
87567,0.12,-0.99,-0.09,-2.73,7.07,-5.27,32.58
87577,0.11,-0.98,-0.09,-2.75,7.16,-4.60,32.48
87587,0.11,-0.98,-0.11,-3.74,7.60,-3.48,32.48
87597,0.10,-0.98,-0.10,-4.49,6.29,-3.04,32.48
87607,0.10,-0.99,-0.10,-5.24,6.29,-1.98,32.48
87617,0.11,-0.99,-0.09,-6.31,6.24,-1.74,32.39
87627,0.12,-1.00,-0.08,-6.67,5.44,-2.11,32.48
87637,0.12,-1.00,-0.07,-7.31,5.65,-3.10,32.48
87647,0.12,-1.00,-0.07,-7.10,5.48,-3.80,32.58
87657,0.11,-1.01,-0.05,-6.12,4.81,-4.37,32.48
87667,0.11,-1.02,-0.05,-4.70,4.44,-4.58,32.58
87677,0.09,-1.02,-0.06,-3.15,3.76,-3.73,32.48
87687,0.09,-1.02,-0.08,-2.44,3.50,-1.79,32.58
87697,0.08,-1.02,-0.08,-2.72,3.36,-0.11,32.39
87707,0.09,-1.01,-0.09,-3.27,4.03,1.30,32.48
87717,0.10,-1.02,-0.07,-3.33,3.44,2.38,32.48
87727,0.10,-1.03,-0.07,-2.73,1.97,1.94,32.48
87737,0.10,-1.02,-0.05,-1.91,0.85,1.54,32.58
87747,0.09,-1.02,-0.05,-0.76,-0.29,1.44,32.39
87757,0.10,-1.02,-0.07,0.31,-0.69,1.56,32.39
87767,0.10,-1.02,-0.08,-0.24,-1.60,1.56,32.48
87777,0.11,-1.02,-0.07,-0.81,-2.05,1.65,32.48
87787,0.10,-1.01,-0.09,-1.53,-2.78,1.92,32.53
87797,0.12,-1.02,-0.10,-2.63,-1.89,2.27,32.44
87807,0.12,-1.03,-0.09,-3.08,-1.50,2.49,32.44
87817,0.15,-1.03,-0.09,-3.34,-0.78,1.95,32.53
87827,0.14,-1.04,-0.09,-4.06,-0.21,0.87,32.44
87837,0.14,-1.05,-0.07,-3.98,-0.53,0.17,32.53
87847,0.14,-1.05,-0.07,-3.36,-1.47,-0.23,32.44
87857,0.15,-1.05,-0.07,-2.95,-1.28,0.02,32.53
87867,0.15,-1.05,-0.08,-2.11,0.05,0.73,32.53
87877,0.15,-1.04,-0.09,-0.93,1.33,1.60,32.53
87887,0.14,-1.03,-0.10,-0.82,1.92,2.15,32.53
87897,0.14,-1.03,-0.09,-1.76,2.85,2.58,32.44
87907,0.14,-1.03,-0.09,-2.27,2.09,2.23,32.44
87917,0.14,-1.03,-0.10,-2.69,2.43,2.12,32.53
87927,0.14,-1.03,-0.08,-3.37,3.44,1.89,32.44
87937,0.14,-1.03,-0.08,-3.08,3.05,1.63,32.53
