Millis,Acce_X,Acce_Y,Acce_Z,Gyro_X,Gyro_Y,Gyro_Z,Temp
188207,0.08,-1.02,0.05,-13.76,0.79,-1.44,30.51
188217,0.07,-1.01,0.07,-13.56,3.95,-1.36,30.60
188227,0.08,-1.01,0.06,-11.94,7.82,-2.00,30.60
188237,0.06,-1.02,0.07,-10.43,10.43,-3.24,30.51
188247,0.03,-0.99,0.07,-9.68,10.66,-5.36,30.69
188257,0.00,-0.97,0.06,-9.39,10.90,-6.24,30.51
188267,-0.01,-0.95,0.06,-9.50,10.87,-5.73,30.60
188277,-0.03,-0.92,0.04,-9.65,10.98,-3.83,30.69
188287,-0.04,-0.89,0.04,-10.52,11.21,-1.40,30.65
188297,-0.03,-0.87,0.04,-10.46,10.73,0.69,30.46
188307,-0.02,-0.85,0.03,-11.02,11.74,2.14,30.65
188317,-0.01,-0.83,0.04,-11.11,11.77,2.99,30.55
188327,-0.00,-0.83,0.03,-11.39,10.90,1.59,30.55
188337,-0.01,-0.83,0.04,-13.25,11.16,-1.11,30.65
188347,-0.02,-0.82,0.03,-15.16,9.47,-4.73,30.65
188357,-0.02,-0.81,0.03,-16.85,7.65,-7.65,30.65
188367,-0.03,-0.80,0.03,-18.69,7.08,-9.15,30.51
188377,-0.04,-0.78,0.02,-20.43,7.80,-8.47,30.51
188387,-0.05,-0.78,0.01,-21.42,8.05,-6.79,30.60
188397,-0.03,-0.77,0.01,-21.68,8.79,-4.64,30.60
188407,-0.03,-0.77,-0.00,-22.81,9.08,-2.49,30.51
188417,-0.01,-0.77,-0.01,-22.58,10.47,-1.10,30.55
188427,-0.00,-0.78,-0.02,-22.18,12.40,-1.22,30.60
188437,0.01,-0.78,-0.04,-22.49,15.18,-1.60,30.51
188447,0.01,-0.78,-0.03,-25.05,12.52,-3.25,30.55
188457,0.00,-0.78,-0.05,-29.71,10.43,-4.95,30.65
188467,-0.01,-0.78,-0.05,-37.37,6.69,-7.22,30.55
188477,-0.01,-0.79,-0.05,-43.25,4.17,-9.48,30.46
188487,-0.03,-0.82,-0.05,-48.12,5.79,-10.52,30.65
188497,-0.04,-0.82,-0.02,-49.80,2.09,-10.20,30.65
188507,-0.04,-0.83,-0.02,-47.28,0.84,-8.34,30.65
188517,-0.04,-0.85,-0.04,-42.72,-0.90,-4.35,30.60
188527,-0.04,-0.86,-0.06,-39.33,-1.68,0.46,30.60
188537,-0.03,-0.88,-0.08,-38.63,-3.54,4.76,30.60
188547,-0.01,-0.91,-0.05,-38.09,-2.15,7.45,30.51
188557,0.03,-0.92,-0.10,-36.03,1.91,9.66,30.60
188567,0.04,-0.93,-0.08,-36.87,1.59,8.26,30.60
188577,0.04,-0.91,-0.11,-35.98,0.92,7.25,30.60
188587,0.05,-0.91,-0.12,-34.61,1.80,5.65,30.55
188597,0.04,-0.92,-0.14,-33.66,2.26,3.37,30.65
188607,0.03,-0.93,-0.15,-33.13,3.62,2.40,30.55
188617,0.02,-0.94,-0.16,-33.53,3.94,1.80,30.65
188627,0.01,-0.93,-0.16,-33.50,3.85,1.24,30.55
188637,0.00,-0.93,-0.18,-33.57,4.09,1.18,30.55
188647,0.01,-0.94,-0.18,-33.44,2.87,2.34,30.55
188657,0.01,-0.92,-0.16,-32.23,0.52,3.53,30.65
188667,0.03,-0.92,-0.17,-31.27,0.46,4.78,30.60
188677,0.02,-0.91,-0.20,-29.98,-0.58,5.39,30.60
188687,0.02,-0.91,-0.24,-29.21,1.21,5.60,30.51
188697,0.01,-0.91,-0.26,-29.91,0.84,5.60,30.60
188707,-0.02,-0.92,-0.29,-33.50,0.78,5.57,30.60
188717,-0.05,-0.93,-0.29,-39.25,-1.69,5.76,30.55
188727,-0.05,-0.90,-0.31,-45.83,-4.63,7.21,30.60
188737,-0.07,-0.89,-0.33,-52.67,-6.72,9.57,30.55
188747,-0.09,-0.89,-0.33,-59.21,-11.68,13.08,30.46
188757,-0.06,-0.87,-0.36,-65.98,-12.37,17.34,30.55
188767,-0.04,-0.87,-0.37,-71.18,-10.09,19.65,30.55
188777,-0.02,-0.89,-0.37,-74.00,-5.02,21.16,30.65
188787,-0.02,-0.88,-0.39,-70.34,-0.61,22.21,30.55
188797,-0.05,-0.91,-0.37,-67.68,6.43,22.67,30.65
188807,-0.07,-0.95,-0.33,-65.10,10.12,22.15,30.51
188817,-0.12,-1.00,-0.32,-64.15,4.38,20.43,30.60
188827,-0.16,-1.05,-0.32,-62.90,-3.62,17.94,30.60
188837,-0.13,-1.08,-0.30,-62.40,-2.53,15.71,30.60
188847,-0.14,-1.09,-0.29,-58.64,-4.40,11.88,30.60
188857,-0.13,-1.08,-0.30,-54.58,-8.15,8.44,30.51
188867,-0.10,-1.04,-0.34,-50.66,-11.15,6.37,30.51
188877,-0.07,-0.99,-0.39,-44.09,-11.94,5.40,30.51
188887,-0.04,-0.98,-0.43,-38.87,-8.56,6.79,30.55
188897,-0.04,-0.95,-0.46,-34.87,-3.48,9.66,30.55
188907,-0.05,-0.95,-0.48,-33.71,0.27,12.18,30.55
188917,-0.05,-0.97,-0.48,-33.19,0.14,13.56,30.55
188927,-0.06,-1.00,-0.50,-34.17,-4.99,12.24,30.55
188937,-0.04,-1.00,-0.54,-39.40,-5.60,8.12,30.55
188947,-0.04,-1.00,-0.53,-44.12,-10.64,1.28,30.55
188957,-0.04,-1.00,-0.52,-46.35,-17.76,-7.66,30.46
188967,-0.04,-1.00,-0.55,-45.34,-23.69,-15.71,30.51
188977,-0.06,-1.00,-0.57,-44.87,-28.26,-21.63,30.60
188987,-0.06,-0.97,-0.62,-45.04,-29.85,-23.66,30.60
188997,-0.08,-0.96,-0.64,-48.98,-29.15,-20.96,30.51
189007,-0.08,-0.96,-0.64,-56.38,-29.56,-16.81,30.51
189017,-0.08,-0.97,-0.65,-64.90,-29.28,-14.08,30.46
189027,-0.10,-0.98,-0.59,-73.07,-31.95,-13.36,30.51
189037,-0.12,-0.98,-0.54,-76.24,-37.13,-13.36,30.46
189047,-0.12,-0.99,-0.50,-73.89,-41.74,-12.52,30.46
189057,-0.08,-0.99,-0.49,-66.52,-41.39,-9.98,30.46
189067,-0.10,-0.99,-0.50,-54.52,-42.82,-8.31,30.46
189077,-0.08,-1.03,-0.53,-41.63,-37.73,-3.54,30.46
189087,-0.06,-1.04,-0.56,-30.18,-30.40,3.40,30.55
189097,-0.04,-1.04,-0.59,-20.58,-21.47,10.32,30.55
189107,-0.02,-1.03,-0.64,-15.04,-10.35,17.57,30.55
189117,-0.00,-1.03,-0.66,-12.84,-0.50,22.69,30.51
189127,0.01,-1.03,-0.61,-11.10,5.54,22.92,30.51
189137,0.02,-1.05,-0.61,-10.82,5.79,18.98,30.51
189147,-0.00,-1.05,-0.59,-11.74,0.47,11.02,30.60
189157,-0.00,-1.05,-0.60,-12.47,-4.34,-0.06,30.60
189167,-0.04,-1.05,-0.55,-13.02,-10.02,-11.31,30.60
189177,-0.08,-1.07,-0.51,-10.92,-19.86,-20.93,30.60
189187,-0.07,-1.08,-0.52,-5.48,-27.28,-24.52,30.46
189197,-0.06,-1.08,-0.54,-1.85,-24.89,-24.03,30.55
189207,-0.08,-1.09,-0.51,3.11,-19.62,-20.82,30.65
189217,-0.09,-1.11,-0.44,15.15,-13.34,-17.68,30.55
189227,-0.10,-1.12,-0.38,31.44,-9.62,-15.54,30.55
189237,-0.12,-1.12,-0.39,48.67,-10.60,-16.02,30.55
189247,-0.12,-1.11,-0.41,62.43,-9.83,-15.45,30.46
189257,-0.11,-1.11,-0.43,74.37,-12.29,-15.82,30.55
189267,-0.08,-1.17,-0.43,84.35,-15.63,-17.77,30.51
189277,-0.04,-1.19,-0.37,90.09,-16.37,-25.22,30.51
189287,-0.00,-1.25,-0.34,98.05,-22.31,-36.70,30.51
189297,0.05,-1.21,-0.42,103.42,-14.23,-50.00,30.51
189307,-0.02,-1.13,-0.47,95.05,-9.27,-56.78,30.41
189317,-0.01,-1.00,-0.52,79.71,-4.90,-53.01,30.55
189327,-0.04,-0.89,-0.59,57.83,-2.84,-42.64,30.60
189337,-0.06,-0.82,-0.62,32.18,0.81,-30.32,30.51
189347,-0.05,-0.81,-0.64,8.79,3.42,-17.56,30.46
189357,-0.02,-0.84,-0.61,-12.53,2.85,-8.61,30.55
189367,0.02,-0.90,-0.59,-30.14,0.23,-5.34,30.55
189377,0.02,-0.98,-0.51,-47.39,-6.00,-6.23,30.55
189387,0.00,-1.06,-0.41,-59.74,-15.15,-7.71,30.46
189397,-0.01,-1.08,-0.33,-64.69,-17.33,-7.27,30.55
189407,-0.05,-1.13,-0.27,-62.06,-16.23,-2.61,30.46
189417,-0.06,-1.16,-0.21,-52.84,-10.02,3.69,30.51
189427,-0.08,-1.18,-0.18,-40.50,-4.41,9.94,30.51
189437,-0.09,-1.17,-0.21,-30.27,-1.69,14.34,30.51
189447,-0.06,-1.14,-0.24,-21.53,1.59,17.73,30.60
189457,-0.02,-1.14,-0.26,-14.79,4.55,18.76,30.60
189467,-0.01,-1.11,-0.30,-11.94,5.73,18.26,30.60
189477,0.00,-1.09,-0.33,-12.43,6.79,16.76,30.51
189487,-0.00,-1.07,-0.35,-15.97,6.12,14.31,30.46
189497,-0.02,-1.08,-0.33,-18.47,1.37,10.99,30.55
189507,-0.02,-1.09,-0.33,-17.31,-0.89,9.05,30.55
189517,-0.02,-1.09,-0.33,-12.31,-2.81,7.10,30.55
189527,-0.02,-1.09,-0.32,-8.11,-5.44,5.51,30.55
189537,-0.01,-1.09,-0.34,-3.65,-6.78,3.33,30.55
189547,0.01,-1.08,-0.35,0.52,-6.14,1.24,30.55
189557,0.00,-1.04,-0.39,1.86,-4.00,0.00,30.65
189567,-0.02,-1.00,-0.42,2.23,0.72,0.67,30.51
189577,-0.05,-0.95,-0.46,-0.43,5.79,4.89,30.51
189587,-0.08,-0.93,-0.47,-4.53,10.41,10.66,30.51
189597,-0.08,-0.92,-0.48,-9.37,12.41,15.39,30.60
189607,-0.07,-0.93,-0.45,-13.27,14.32,17.97,30.51
189617,-0.05,-0.97,-0.43,-14.49,12.34,17.24,30.55
189627,-0.04,-1.00,-0.42,-12.24,9.33,14.05,30.60
189637,-0.04,-1.03,-0.39,-8.27,5.73,9.73,30.51
189647,-0.02,-1.05,-0.35,-3.19,3.82,5.44,30.55
189657,-0.01,-1.06,-0.34,2.14,1.16,0.89,30.65
189667,0.00,-1.05,-0.35,6.31,-1.34,-4.46,30.55
189677,0.01,-1.03,-0.39,7.42,-1.39,-9.30,30.55
189687,0.00,-0.99,-0.40,7.05,-1.83,-11.24,30.55
189697,0.01,-0.97,-0.44,4.46,-0.18,-10.84,30.46
189707,0.02,-0.97,-0.46,1.36,3.34,-8.96,30.46
189717,0.00,-0.99,-0.45,-1.40,7.44,-8.46,30.60
189727,-0.01,-1.01,-0.43,-0.92,9.83,-8.87,30.60
189737,-0.03,-1.04,-0.45,1.07,10.15,-9.95,30.60
189747,-0.05,-1.06,-0.43,2.56,9.68,-12.50,30.51
189757,-0.07,-1.06,-0.42,4.09,6.95,-15.47,30.60
189767,-0.08,-1.04,-0.43,5.15,5.04,-15.94,30.51
189777,-0.08,-1.03,-0.44,4.41,4.15,-14.46,30.41
189787,-0.06,-1.04,-0.47,3.85,5.47,-11.86,30.55
189797,-0.03,-1.06,-0.49,2.60,8.58,-8.31,30.55
189807,0.03,-1.10,-0.50,-0.17,13.24,-6.61,30.55
189817,0.07,-1.15,-0.52,-4.09,17.48,-7.91,30.46
189827,0.14,-1.23,-0.50,-7.42,24.73,-10.69,30.46
189837,0.19,-1.27,-0.47,-7.50,35.47,-14.55,30.55
189847,0.20,-1.33,-0.43,-5.28,49.56,-19.21,30.55
189857,0.17,-1.36,-0.37,1.08,59.63,-24.27,30.55
189867,0.13,-1.35,-0.27,10.24,67.82,-28.87,30.51
189877,0.09,-1.29,-0.33,20.69,65.50,-31.69,30.51
189887,0.08,-1.23,-0.38,26.08,62.02,-33.36,30.51
189897,0.06,-1.16,-0.47,23.48,58.67,-33.30,30.51
189907,0.03,-1.09,-0.52,17.34,55.69,-29.97,30.60
189917,0.02,-1.05,-0.55,12.96,56.85,-21.77,30.46
189927,0.02,-1.02,-0.56,9.24,61.92,-11.68,30.60
189937,0.01,-1.00,-0.54,5.31,64.72,-3.01,30.55
189947,0.03,-1.02,-0.51,4.38,65.02,3.98,30.46
189957,0.02,-1.06,-0.49,5.34,65.79,10.11,30.55
189967,-0.01,-1.08,-0.44,4.64,62.60,16.55,30.55
189977,-0.01,-1.10,-0.42,4.20,59.66,23.36,30.55
189987,0.01,-1.08,-0.43,1.31,60.78,26.90,30.55
189997,0.03,-1.08,-0.44,-5.62,62.60,26.15,30.55
190007,0.03,-1.09,-0.42,-13.50,64.90,21.88,30.55
190017,-0.01,-1.09,-0.34,-15.13,63.22,18.49,30.51
190027,-0.05,-1.08,-0.31,-7.10,62.85,20.38,30.51
190037,-0.09,-1.07,-0.24,9.08,62.03,25.82,30.41
190047,-0.11,-1.04,-0.25,27.45,58.70,32.60,30.51
190057,-0.11,-0.99,-0.28,41.07,52.99,37.51,30.51
190067,-0.09,-0.96,-0.35,45.42,44.26,38.60,30.41
190077,-0.04,-0.92,-0.41,42.15,33.22,35.69,30.51
190087,0.02,-0.93,-0.47,31.80,29.08,25.73,30.46
190097,0.03,-0.97,-0.46,15.33,21.83,10.26,30.46
190107,-0.01,-0.97,-0.41,-0.12,8.96,-5.88,30.55
190117,-0.04,-0.98,-0.33,-7.57,-4.15,-15.73,30.55
190127,-0.06,-0.98,-0.27,-4.69,-11.60,-17.40,30.55
190137,-0.05,-0.98,-0.28,5.16,-9.62,-11.40,30.55
190147,-0.06,-0.96,-0.29,14.90,-0.82,0.90,30.55
190157,-0.08,-0.95,-0.31,21.88,3.74,14.06,30.55
190167,-0.06,-0.92,-0.37,25.08,4.31,23.21,30.55
190177,-0.02,-0.87,-0.47,19.60,6.58,29.89,30.51
190187,0.01,-0.87,-0.49,9.07,9.37,34.63,30.51
190197,0.02,-0.88,-0.47,0.20,10.09,36.93,30.51
190207,0.04,-0.92,-0.43,-7.71,9.47,37.47,30.60
190217,0.06,-0.94,-0.39,-12.73,7.08,35.68,30.60
190227,0.07,-0.97,-0.35,-12.82,4.40,31.47,30.60
190237,0.03,-1.00,-0.32,-10.61,-4.08,26.90,30.60
190247,0.01,-1.01,-0.31,-8.41,-13.44,23.05,30.55
190257,0.01,-1.02,-0.32,-5.76,-18.38,22.14,30.55
190267,0.01,-1.01,-0.35,-2.31,-19.16,24.29,30.55
190277,0.01,-1.03,-0.37,1.79,-13.37,28.96,30.46
190287,0.01,-1.01,-0.38,4.52,-7.30,32.53,30.55
190297,0.02,-1.00,-0.36,4.87,-2.93,32.66,30.46
190307,0.03,-0.99,-0.35,4.03,-3.98,30.14,30.55
190317,0.06,-0.96,-0.37,1.92,-4.55,25.57,30.55
190327,0.09,-0.94,-0.38,-0.90,-2.03,20.43,30.51
190337,0.09,-0.94,-0.36,-3.28,0.27,14.15,30.51
190347,0.10,-0.93,-0.38,-5.65,5.48,8.49,30.51
190357,0.05,-0.95,-0.36,-9.13,10.43,5.24,30.51
190367,0.01,-0.96,-0.31,-8.79,16.53,4.37,30.51
190377,-0.06,-0.96,-0.32,-8.31,39.63,13.08,30.51
190387,-0.15,-0.94,-0.26,-6.31,38.58,25.71,30.55
190397,-0.16,-0.94,-0.26,-2.20,40.92,39.07,30.51
190407,-0.16,-0.96,-0.23,2.47,33.45,46.40,30.55
190417,-0.14,-0.97,-0.20,5.92,22.52,47.77,30.55
190427,-0.09,-0.99,-0.21,13.05,10.08,43.59,30.46
190437,-0.04,-1.01,-0.22,22.44,-2.20,36.17,30.65
190447,-0.00,-1.01,-0.25,27.53,-7.62,26.37,30.46
190457,0.03,-1.01,-0.26,29.92,-11.01,15.02,30.46
190467,0.06,-1.01,-0.27,29.33,-10.11,1.39,30.55
190477,0.05,-1.02,-0.27,27.56,-12.52,-14.41,30.46
190487,0.03,-1.03,-0.26,26.99,-17.69,-28.61,30.51
190497,-0.00,-1.04,-0.27,27.69,-17.89,-37.98,30.51
190507,-0.03,-1.01,-0.28,31.88,-17.11,-39.60,30.51
190517,-0.06,-0.98,-0.30,36.50,-12.37,-34.99,30.51
190527,-0.08,-0.96,-0.29,40.82,-9.59,-28.34,30.51
190537,-0.07,-0.93,-0.31,42.55,-7.28,-20.14,30.60
190547,-0.07,-0.92,-0.33,43.30,-4.58,-10.40,30.51
190557,-0.04,-0.91,-0.34,44.63,3.11,-1.82,30.55
190567,-0.01,-0.92,-0.32,44.69,8.75,3.11,30.46
190577,-0.01,-0.93,-0.28,42.29,9.27,3.98,30.55
190587,-0.00,-0.94,-0.27,38.49,4.99,1.79,30.55
190597,0.01,-0.94,-0.26,34.49,2.27,-2.90,30.46
190607,0.02,-0.94,-0.29,29.77,7.74,-5.95,30.46
190617,-0.02,-0.92,-0.27,26.70,6.49,-4.55,30.55
190627,-0.04,-0.89,-0.28,21.42,11.31,2.09,30.60
190637,-0.09,-0.86,-0.27,15.83,7.88,9.11,30.51
190647,-0.13,-0.84,-0.26,9.50,3.36,16.37,30.60
190657,-0.14,-0.85,-0.28,1.42,-3.25,23.86,30.60
190667,-0.13,-0.85,-0.26,-2.69,-8.96,27.95,30.51
190677,-0.08,-0.88,-0.21,-0.60,-10.49,28.82,30.51
190687,-0.02,-0.91,-0.19,6.23,-6.00,27.82,30.55
190697,0.02,-0.93,-0.20,12.11,-1.19,24.03,30.55
190707,0.04,-0.97,-0.18,14.81,0.15,16.46,30.55
190717,0.05,-0.99,-0.15,16.20,-1.76,6.15,30.46
190727,0.06,-1.03,-0.13,19.18,-4.12,-5.01,30.46
190737,0.07,-1.05,-0.12,24.78,-5.18,-15.22,30.55
190747,0.08,-1.04,-0.12,31.33,-0.98,-22.21,30.55
190757,0.04,-1.03,-0.13,36.49,1.33,-26.76,30.60
190767,0.02,-1.01,-0.14,37.66,1.60,-30.35,30.60
190777,-0.00,-1.00,-0.13,36.78,2.41,-33.25,30.60
190787,-0.04,-1.00,-0.12,36.61,0.69,-33.10,30.60
190797,-0.08,-1.00,-0.09,40.32,0.63,-28.58,30.51
190807,-0.11,-0.98,-0.08,46.55,0.89,-19.86,30.60
190817,-0.13,-0.97,-0.07,52.70,0.60,-9.04,30.55
190827,-0.13,-0.97,-0.11,55.27,0.87,0.98,30.55
190837,-0.11,-0.96,-0.12,53.05,0.37,8.64,30.55
190847,-0.08,-0.95,-0.15,46.92,-1.79,12.12,30.55
190857,-0.03,-0.95,-0.15,39.66,-1.62,11.69,30.55
190867,0.02,-0.95,-0.17,31.36,0.18,7.76,30.55
190877,0.04,-0.96,-0.16,22.73,2.20,0.32,30.55
190887,0.06,-0.98,-0.13,14.12,0.72,-9.51,30.60
190897,0.06,-1.00,-0.10,7.76,-3.40,-20.75,30.60
190907,0.06,-1.02,-0.09,2.40,-3.95,-31.45,30.41
190917,0.01,-1.03,-0.03,1.53,-7.91,-37.53,30.60
190927,-0.02,-1.02,-0.01,4.89,-6.85,-35.54,30.51
190937,-0.07,-1.01,-0.01,10.72,-3.40,-28.24,30.60
190947,-0.08,-0.99,-0.03,15.48,0.03,-18.11,30.55
190957,-0.08,-0.97,-0.04,16.70,3.77,-8.14,30.46
190967,-0.05,-0.95,-0.07,13.63,7.05,-2.02,30.55
190977,-0.02,-0.94,-0.09,6.67,8.99,-0.56,30.46
190987,0.01,-0.93,-0.09,-2.61,8.08,-3.79,30.55
190997,0.05,-0.93,-0.08,-12.95,6.37,-11.65,30.65
191007,0.09,-0.92,-0.10,-25.42,7.28,-21.13,30.55
191017,0.11,-0.92,-0.11,-39.13,7.50,-32.34,30.55
191027,0.10,-0.94,-0.05,-51.59,4.53,-44.53,30.60
191037,0.06,-0.96,0.00,-59.16,-0.61,-56.21,30.60
191047,0.03,-0.97,0.04,-61.39,-7.18,-64.26,30.51
191057,-0.06,-1.01,0.09,-56.72,-13.02,-64.12,30.51
191067,-0.10,-1.00,0.10,-43.73,-13.73,-54.24,30.60
191077,-0.10,-0.99,0.09,-28.20,-7.37,-38.60,30.55
191087,-0.10,-0.97,0.06,-14.06,-1.22,-21.65,30.41
191097,-0.09,-0.98,0.04,-2.46,2.58,-6.08,30.55
191107,-0.08,-0.98,0.03,4.49,1.45,4.63,30.55
191117,-0.05,-0.97,0.01,8.35,-0.87,11.50,30.55
191127,-0.01,-0.96,-0.05,9.47,-4.72,14.87,30.55
191137,0.04,-0.96,-0.09,7.95,-6.00,15.74,30.55
191147,0.08,-0.97,-0.09,3.83,-9.24,11.71,30.55
191157,0.11,-0.99,-0.11,-2.15,-12.41,4.02,30.55
191167,0.11,-1.00,-0.09,-7.42,-16.47,-4.63,30.60
191177,0.12,-0.99,-0.09,-10.79,-16.96,-11.80,30.51
191187,0.11,-0.99,-0.08,-10.89,-15.27,-16.20,30.51
191197,0.09,-0.97,-0.08,-9.25,-11.69,-17.50,30.60
191207,0.06,-0.98,-0.04,-6.98,-11.45,-17.34,30.55
191217,0.05,-0.98,-0.05,-4.69,-11.62,-16.24,30.51
191227,0.03,-0.97,-0.04,-3.08,-12.69,-14.99,30.51
191237,0.03,-0.96,-0.04,-2.05,-13.24,-12.00,30.55
191247,0.04,-0.94,-0.06,-0.81,-10.58,-7.80,30.55
191257,0.05,-0.92,-0.07,-0.23,-7.45,-3.50,30.55
191267,0.06,-0.92,-0.09,-1.05,-6.49,-0.11,30.55
191277,0.07,-0.92,-0.07,-2.24,-6.78,1.98,30.55
191287,0.07,-0.94,-0.07,-2.52,-8.08,3.11,30.55
191297,0.08,-0.95,-0.07,-2.06,-9.98,4.73,30.65
191307,0.08,-0.97,-0.06,-0.31,-10.70,6.81,30.51
191317,0.08,-0.98,-0.06,2.23,-10.35,9.39,30.51
191327,0.08,-0.99,-0.04,3.57,-8.08,11.34,30.51
191337,0.07,-1.02,-0.03,4.50,-8.23,11.88,30.51
191347,0.08,-1.02,-0.03,5.30,-9.07,10.37,30.60
191357,0.09,-1.01,-0.03,6.49,-8.23,8.21,30.60
191367,0.09,-1.01,-0.04,7.28,-7.47,6.14,30.60
191377,0.07,-1.01,-0.05,7.80,-7.13,3.92,30.65
191387,0.06,-1.01,-0.04,8.05,-8.17,2.85,30.55
191397,0.08,-0.99,-0.04,8.05,-6.93,2.78,30.55
191407,0.09,-0.97,-0.05,9.27,-5.80,3.10,30.55
191417,0.10,-0.98,-0.08,9.08,-2.55,3.33,30.55
191427,0.10,-0.97,-0.08,7.45,-0.84,3.08,30.55
191437,0.10,-0.98,-0.08,5.34,-1.36,2.66,30.55
191447,0.10,-1.00,-0.07,4.24,-1.33,2.20,30.65
191457,0.08,-1.02,-0.06,4.27,0.38,2.92,30.60
191467,0.07,-1.03,-0.06,5.48,1.74,4.06,30.51
191477,0.07,-1.04,-0.06,6.34,2.20,3.74,30.60
191487,0.07,-1.03,-0.04,6.66,1.62,2.20,30.51
191497,0.09,-1.02,-0.03,7.02,2.52,-0.11,30.51
191507,0.10,-0.99,-0.03,8.52,2.84,-3.60,30.55
191517,0.12,-0.94,-0.02,9.42,4.35,-7.07,30.60
191527,0.13,-0.89,-0.02,10.12,5.80,-10.23,30.65
191537,0.12,-0.87,-0.03,9.54,7.65,-12.21,30.55
191547,0.10,-0.87,-0.02,6.60,9.22,-12.87,30.55
191557,0.08,-0.86,-0.01,3.11,8.61,-13.51,30.65
191567,0.06,-0.86,-0.02,-0.60,8.26,-12.98,30.65
191577,0.05,-0.87,-0.01,-3.86,6.92,-11.24,30.55
191587,0.03,-0.90,-0.01,-5.07,6.70,-8.41,30.55
191597,0.02,-0.92,-0.00,-5.86,5.79,-5.08,30.65
191607,0.01,-0.93,0.02,-6.29,4.05,-1.39,30.51
191617,0.03,-0.95,0.02,-5.22,2.66,2.32,30.51
191627,0.04,-0.97,0.02,-3.30,2.47,5.79,30.60
191637,0.06,-0.98,-0.01,-1.86,5.05,9.18,30.60
191647,0.06,-1.00,-0.02,-1.73,5.34,10.27,30.51
191657,0.06,-1.03,0.01,-2.44,5.92,8.93,30.60
191667,0.07,-1.04,0.03,-3.74,4.44,5.80,30.51
191677,0.07,-1.04,0.03,-3.91,2.82,2.20,30.55
191687,0.06,-1.03,0.03,-3.11,3.05,-0.17,30.65
191697,0.04,-1.03,0.03,-2.21,3.01,-1.33,30.65
191707,0.02,-1.00,0.04,-2.06,2.60,-0.29,30.55
191717,0.01,-0.99,0.03,-2.63,1.37,2.35,30.55
191727,0.01,-0.99,0.02,-3.22,1.22,7.07,30.55
191737,0.00,-0.99,0.03,-3.59,0.11,12.23,30.55
191747,0.01,-1.01,0.04,-3.24,1.48,16.60,30.55
191757,0.02,-1.03,0.05,-3.27,1.15,19.82,30.60
191767,0.01,-1.06,0.05,-3.07,-0.67,20.92,30.60
191777,0.02,-1.07,0.07,-2.72,-1.45,20.93,30.60
191787,0.02,-1.10,0.07,-1.85,-2.53,20.46,30.60
191797,0.00,-1.12,0.07,0.09,-5.69,19.47,30.60
191807,0.02,-1.15,0.05,3.13,-3.95,17.01,30.55
191817,0.02,-1.15,0.04,4.93,-3.21,12.79,30.60
191827,0.03,-1.15,0.03,4.37,-4.23,7.07,30.55
191837,0.06,-1.12,-0.00,4.08,-4.67,0.70,30.55
191847,0.07,-1.08,-0.01,3.98,-4.06,-5.77,30.55
191857,0.08,-1.04,-0.03,3.92,-3.27,-10.92,30.55
191867,0.08,-0.98,-0.05,3.36,-2.84,-14.37,30.55
191877,0.08,-0.94,-0.06,2.41,-1.51,-16.31,30.55
191887,0.07,-0.89,-0.07,0.26,-0.43,-16.70,30.55
191897,0.07,-0.87,-0.08,-1.91,-0.37,-15.80,30.46
191907,0.06,-0.85,-0.07,-3.92,1.34,-13.86,30.55
191917,0.05,-0.84,-0.05,-5.60,1.85,-10.78,30.60
191927,0.03,-0.82,-0.04,-7.02,1.65,-6.72,30.60
191937,0.03,-0.84,-0.03,-8.06,2.00,-2.55,30.60
191947,0.02,-0.86,-0.01,-9.48,1.07,1.50,30.60
191957,0.02,-0.89,0.01,-10.78,0.14,4.06,30.51
191967,0.01,-0.94,0.02,-10.85,-1.56,5.80,30.60
191977,0.01,-0.97,0.03,-10.05,-4.00,6.93,30.55
191987,0.01,-0.99,0.02,-9.92,-3.47,7.94,30.51
191997,0.02,-1.01,0.03,-8.15,-5.74,7.79,30.65
192007,0.04,-1.03,0.02,-8.34,-3.44,7.19,30.55
192017,0.05,-1.04,0.02,-7.34,-3.07,5.47,30.46
192027,0.06,-1.05,-0.00,-6.73,-2.15,4.09,30.65
192037,0.06,-1.06,-0.01,-7.56,-2.98,2.92,30.55
192047,0.07,-1.06,0.00,-7.34,-2.76,1.36,30.55
192057,0.07,-1.08,-0.02,-6.70,-1.94,0.08,30.65
192067,0.08,-1.07,-0.06,-6.37,-1.97,-0.72,30.55
192077,0.08,-1.08,-0.04,-6.93,0.05,-3.15,30.51
192087,0.08,-1.08,-0.04,-7.22,-0.11,-4.72,30.51
192097,0.08,-1.07,-0.04,-8.46,-0.76,-5.85,30.60
192107,0.08,-1.07,-0.04,-9.04,-0.43,-6.38,30.60
192117,0.08,-1.08,-0.04,-8.90,-0.49,-6.92,30.60
192127,0.08,-1.08,-0.06,-8.35,-1.11,-7.13,30.51
192137,0.07,-1.09,-0.02,-8.17,-0.79,-7.76,30.51
192147,0.08,-1.08,-0.01,-6.95,-1.02,-7.57,30.55
192157,0.08,-1.07,0.00,-4.98,-1.39,-7.31,30.55
192167,0.07,-1.06,-0.02,-3.37,-0.27,-6.06,30.74
192177,0.07,-1.04,-0.04,-2.41,-0.15,-4.60,30.55
192187,0.06,-1.03,-0.06,-2.73,1.05,-2.18,30.55
192197,0.06,-1.02,-0.07,-4.11,3.15,-0.09,30.65
192207,0.05,-1.00,-0.06,-5.85,3.66,2.09,30.55
192217,0.06,-1.01,-0.05,-7.08,3.95,3.53,30.55
192227,0.06,-1.03,-0.03,-7.31,3.95,4.41,30.69
192237,0.06,-1.05,-0.02,-6.56,3.40,4.70,30.51
192247,0.06,-1.05,-0.02,-5.53,3.21,4.35,30.41
192257,0.05,-1.06,-0.04,-4.53,3.22,3.62,30.60
192267,0.06,-1.06,-0.03,-3.86,3.42,2.61,30.51
192277,0.06,-1.05,-0.03,-4.06,3.28,1.63,30.55
192287,0.05,-1.05,-0.02,-4.20,2.76,0.73,30.51
192297,0.04,-1.04,-0.02,-3.71,2.56,0.31,30.60
192307,0.04,-1.05,-0.02,-2.72,3.34,0.08,30.55
192317,0.04,-1.05,-0.02,-1.30,3.05,-0.14,30.55
192327,0.04,-1.04,-0.03,-1.95,2.49,-0.38,30.46
192337,0.04,-1.04,-0.03,-2.40,1.45,-0.63,30.55
192347,0.05,-1.03,-0.04,-2.52,1.37,-0.98,30.55
192357,0.05,-1.03,-0.05,-2.66,2.40,-0.64,30.55
192367,0.04,-1.02,-0.06,-2.44,1.97,0.00,30.65
192377,0.05,-1.01,-0.06,-3.01,2.50,0.72,30.55
192387,0.05,-1.00,-0.04,-3.92,2.82,0.73,30.60
192397,0.06,-1.00,-0.04,-4.26,4.27,0.79,30.51
192407,0.06,-1.00,-0.03,-4.21,5.18,0.73,30.60
192417,0.05,-0.99,-0.03,-4.55,4.90,0.78,30.51
192427,0.06,-0.99,-0.04,-4.34,4.26,1.34,30.51
192437,0.04,-0.99,-0.05,-4.21,3.89,1.97,30.60
192447,0.04,-0.98,-0.05,-4.44,4.53,3.10,30.55
192457,0.03,-0.99,-0.04,-5.28,4.95,3.85,30.65
192467,0.03,-1.00,-0.03,-5.56,4.06,4.27,30.65
192477,0.03,-1.00,-0.03,-5.08,3.83,5.04,30.55
192487,0.04,-1.00,-0.02,-3.98,3.77,5.80,30.55
192497,0.04,-1.01,-0.03,-2.99,3.92,7.05,30.46
192507,0.04,-1.00,-0.04,-3.51,5.71,7.89,30.55
192517,0.03,-0.99,-0.04,-6.32,4.34,8.32,30.65
192527,0.04,-1.01,-0.03,-8.20,2.38,7.89,30.51
192537,0.02,-1.02,-0.02,-8.41,0.95,7.48,30.51
192547,0.03,-1.03,-0.01,-8.06,0.31,6.92,30.51
192557,0.03,-1.06,-0.00,-6.79,-2.02,6.40,30.51
192567,0.03,-1.06,0.01,-5.22,-2.78,5.16,30.51
192577,0.04,-1.06,0.01,-2.49,-3.36,3.48,30.46
192587,0.04,-1.06,0.02,0.87,-3.42,1.86,30.60
192597,0.04,-1.06,-0.00,3.89,-2.73,0.66,30.60
192607,0.04,-1.05,-0.00,5.50,-3.88,-0.70,30.55
192617,0.04,-1.05,-0.01,6.23,-5.53,-0.90,30.55
192627,0.04,-1.05,-0.01,5.76,-6.99,-1.16,30.55
192637,0.05,-1.04,-0.03,3.89,-5.04,-0.79,30.55
192647,0.05,-1.04,-0.02,1.73,-4.69,-0.89,30.55
192657,0.05,-1.04,-0.03,0.11,-5.04,-1.54,30.46
192667,0.06,-1.03,-0.03,-1.73,-5.65,-2.78,30.55
192677,0.07,-1.03,-0.02,-2.09,-5.68,-4.21,30.51
192687,0.07,-1.03,-0.02,-1.68,-4.15,-4.15,30.60
192697,0.06,-1.04,-0.01,-0.82,-3.50,-3.57,30.60
192707,0.05,-1.04,-0.02,-1.10,-0.27,-2.20,30.41
192717,0.05,-1.05,-0.02,-1.53,2.21,-0.53,30.60
192727,0.04,-1.05,-0.01,-1.85,2.98,0.50,30.60
192737,0.05,-1.05,-0.00,-0.79,4.49,1.16,30.60
192747,0.06,-1.06,-0.01,1.24,5.92,0.98,30.55
192757,0.05,-1.07,-0.01,2.55,5.66,0.49,30.46
192767,0.05,-1.08,-0.00,2.79,4.52,-0.41,30.65
192777,0.05,-1.07,-0.00,3.04,4.02,-1.45,30.55
192787,0.05,-1.05,-0.02,2.96,3.60,-1.94,30.55
192797,0.05,-1.06,-0.02,2.17,2.11,-2.02,30.55
192807,0.05,-1.05,-0.02,0.76,1.73,-2.21,30.46
192817,0.06,-1.04,-0.02,0.12,1.66,-2.21,30.51
192827,0.05,-1.04,-0.02,-0.03,2.15,-2.23,30.51
192837,0.04,-1.04,-0.01,0.21,2.44,-1.98,30.69
192847,0.04,-1.05,-0.00,0.50,2.23,-1.77,30.60
192857,0.04,-1.04,0.00,0.70,2.50,-1.36,30.51
192867,0.04,-1.05,-0.00,0.82,3.80,-1.40,30.60
192877,0.03,-1.05,0.00,1.48,3.53,-2.06,30.55
192887,0.04,-1.05,0.01,2.31,4.15,-2.61,30.60
192897,0.03,-1.04,0.01,2.49,3.86,-2.60,30.55
192907,0.03,-1.05,0.01,2.90,2.55,-2.35,30.55
192917,0.04,-1.04,0.00,3.21,2.08,-1.54,30.55
192927,0.03,-1.04,0.00,2.69,-0.35,-0.18,30.55
192937,0.12,-1.05,-0.08,4.60,6.95,-0.21,30.46
192947,0.05,-1.04,0.02,4.02,-1.71,-2.03,30.55
192957,0.04,-1.03,-0.02,2.49,4.95,0.52,30.55
192967,0.04,-1.05,0.01,0.95,3.59,-0.64,30.51
192977,0.05,-1.05,0.01,0.50,3.94,-1.73,30.51
192987,0.06,-1.06,0.01,0.17,4.11,-3.57,30.51
192997,0.05,-1.06,0.02,1.54,3.92,-5.18,30.41
193007,0.05,-1.06,0.04,2.49,3.57,-6.26,30.60
193017,0.04,-1.06,0.03,2.66,2.75,-7.15,30.60
193027,0.04,-1.05,0.02,2.18,1.37,-7.79,30.51
193037,0.03,-1.05,0.02,1.69,0.50,-8.44,30.55
193047,0.04,-1.05,0.00,2.08,0.85,-8.06,30.55
193057,0.04,-1.03,0.01,2.06,1.97,-7.40,30.55
193067,0.03,-1.02,0.01,1.47,2.63,-6.66,30.55
193077,0.04,-1.01,0.02,0.67,2.06,-6.14,30.55
193087,0.04,-1.01,0.02,-0.11,2.27,-5.24,30.55
193097,0.05,-1.01,0.02,-0.29,2.70,-4.37,30.46
193107,0.06,-1.01,0.02,0.09,2.66,-3.28,30.55
193117,0.06,-1.02,0.02,0.41,2.81,-2.93,30.60
193127,0.05,-1.02,0.03,1.11,1.68,-2.95,30.60
193137,0.06,-1.03,0.03,1.86,0.70,-2.98,30.60
193147,0.06,-1.03,0.02,3.16,-1.40,-2.78,30.51
193157,0.06,-1.03,0.02,3.11,0.78,-3.04,30.51
193167,0.07,-1.04,0.02,3.10,0.11,-3.51,30.51
193177,0.08,-1.02,0.03,2.81,-0.02,-4.29,30.55
193187,0.07,-1.02,0.01,2.29,0.08,-4.96,30.60
193197,0.07,-1.02,0.03,1.60,-0.29,-5.80,30.65
