Millis,Acce_X,Acce_Y,Acce_Z,Gyro_X,Gyro_Y,Gyro_Z,Temp
102577,-0.03,-0.92,0.37,-21.33,1.25,5.13,30.18
102587,-0.03,-0.97,0.39,-17.73,3.10,9.73,30.08
102597,-0.01,-1.02,0.42,-12.84,5.53,11.83,30.08
102607,-0.00,-1.05,0.43,-7.98,5.30,10.93,30.08
102617,0.01,-1.06,0.42,-4.09,5.36,8.79,30.08
102627,0.02,-1.04,0.40,-0.66,3.15,6.09,30.18
102637,0.02,-1.02,0.37,1.36,2.61,4.17,30.18
102647,0.03,-0.98,0.33,2.56,3.39,4.06,30.13
102657,0.04,-0.93,0.29,2.89,4.60,4.90,30.22
102667,0.04,-0.89,0.26,1.82,8.00,6.50,30.22
102677,0.05,-0.88,0.26,-0.20,10.76,8.03,30.13
102687,0.05,-0.86,0.26,-1.79,11.85,8.72,30.13
102697,0.06,-0.86,0.25,-3.05,12.70,7.86,30.13
102707,0.06,-0.86,0.26,-4.50,12.81,5.63,30.08
102717,0.06,-0.85,0.28,-5.98,11.21,1.39,30.08
102727,0.06,-0.84,0.28,-5.69,10.12,-3.53,30.08
102737,0.07,-0.82,0.26,-4.75,11.74,-7.54,30.08
102747,0.06,-0.80,0.23,-4.37,13.63,-8.35,30.18
102757,0.04,-0.80,0.25,-1.51,20.41,-4.38,30.18
102767,0.02,-0.79,0.26,5.47,26.96,3.31,30.13
102777,-0.00,-0.80,0.28,12.40,35.51,10.79,30.22
102787,-0.01,-0.80,0.35,22.56,37.60,15.34,30.22
102797,0.00,-0.80,0.34,35.15,43.21,16.38,30.13
102807,-0.02,-0.77,0.33,40.79,44.72,15.22,30.13
102817,-0.02,-0.75,0.31,38.50,42.84,13.28,30.13
102827,-0.01,-0.71,0.29,29.88,33.76,8.52,30.18
102837,0.01,-0.69,0.23,17.68,24.40,0.38,30.08
102847,-0.02,-0.67,0.21,0.52,14.11,-8.90,30.18
102857,-0.01,-0.62,0.16,-15.79,8.49,-18.08,30.08
102867,-0.11,-0.74,0.29,-26.29,-8.60,-22.72,30.18
102877,-0.11,-0.70,0.28,-41.65,-14.35,-20.98,30.08
102887,-0.10,-0.74,0.32,-48.78,-21.56,-17.44,30.04
102897,-0.08,-0.74,0.30,-53.63,-19.07,-8.11,30.13
102907,-0.07,-0.78,0.30,-52.44,-9.04,5.24,30.13
102917,-0.06,-0.84,0.33,-50.70,-3.24,15.45,30.13
102927,-0.04,-0.89,0.38,-48.58,-0.78,19.36,30.18
102937,-0.02,-0.93,0.39,-46.09,-10.29,17.44,30.13
102947,0.02,-0.95,0.34,-46.05,-12.81,12.18,30.08
102957,0.04,-0.96,0.29,-47.79,-15.65,4.12,30.08
102967,0.07,-0.94,0.24,-53.01,-12.40,-4.18,30.08
102977,0.04,-0.94,0.26,-55.57,-11.66,-9.01,30.08
102987,0.00,-0.91,0.27,-58.43,-13.24,-8.63,30.08
102997,0.00,-0.91,0.26,-55.73,-13.79,-4.99,30.27
103007,0.03,-0.90,0.22,-48.98,-9.91,1.69,30.04
103017,0.04,-0.89,0.17,-42.31,-3.82,8.11,30.13
103027,0.06,-0.89,0.13,-37.79,-0.46,11.45,30.13
103037,0.07,-0.91,0.11,-35.37,-1.73,10.37,30.22
103047,0.12,-0.89,0.07,-34.46,-2.46,6.20,30.13
103057,0.12,-0.86,0.02,-33.89,-2.50,1.92,30.08
103067,0.11,-0.86,0.02,-34.69,-2.93,-1.71,30.08
103077,0.09,-0.85,0.01,-37.10,-4.41,-4.17,30.08
103087,0.05,-0.86,-0.00,-42.92,-5.76,-4.00,30.08
103097,0.01,-0.87,-0.02,-48.17,-6.72,-0.09,30.18
103107,-0.02,-0.87,-0.04,-54.89,-5.19,9.21,30.08
103117,-0.02,-0.90,-0.04,-60.75,-1.79,21.62,30.08
103127,-0.02,-0.92,-0.03,-65.47,5.10,34.55,30.13
103137,-0.05,-0.95,-0.02,-69.44,11.37,45.44,30.13
103147,-0.08,-1.00,0.01,-72.60,13.83,52.99,30.13
103157,-0.12,-1.05,0.05,-74.49,13.01,57.05,30.04
103167,-0.14,-1.09,0.09,-76.02,6.53,55.15,30.22
103177,-0.11,-1.14,0.12,-77.10,-2.17,46.92,30.13
103187,-0.07,-1.15,0.12,-75.40,-9.59,33.79,30.08
103197,-0.02,-1.16,0.12,-72.15,-11.80,17.73,30.08
103207,-0.04,-1.14,0.10,-69.66,-16.12,1.95,30.08
103217,-0.05,-1.12,0.10,-65.60,-17.08,-7.15,30.08
103227,-0.10,-1.10,0.09,-61.59,-19.19,-8.40,30.08
103237,-0.12,-1.09,0.07,-54.92,-21.31,-2.26,30.08
103247,-0.13,-1.12,0.10,-44.69,-18.87,9.08,30.08
103257,-0.08,-1.11,0.07,-35.83,-9.36,22.24,30.13
103267,-0.05,-1.11,0.08,-27.80,-4.89,31.48,30.13
103277,-0.00,-1.11,0.08,-19.91,-2.47,33.71,30.13
103287,0.05,-1.11,0.07,-12.69,-1.05,29.92,30.04
103297,0.09,-1.10,0.03,-8.29,-3.97,19.42,30.13
103307,0.11,-1.05,-0.06,-7.16,-6.02,5.66,30.13
103317,0.12,-0.97,-0.16,-11.15,-4.55,-7.73,30.08
103327,0.07,-0.90,-0.25,-20.92,-7.24,-16.18,30.18
103337,0.02,-0.86,-0.31,-32.44,-12.90,-18.82,30.18
103347,-0.01,-0.83,-0.37,-45.42,-11.63,-13.59,30.08
103357,-0.10,-0.81,-0.35,-54.43,-21.94,-2.02,30.08
103367,-0.14,-0.83,-0.31,-55.59,-28.02,14.31,29.99
103377,-0.13,-0.87,-0.24,-50.03,-27.04,31.77,30.13
103387,-0.12,-0.91,-0.20,-42.61,-22.73,45.83,30.13
103397,-0.11,-0.96,-0.19,-38.92,-12.79,53.83,30.22
103407,-0.09,-1.00,-0.19,-40.05,-0.08,54.06,30.13
103417,-0.10,-1.05,-0.19,-45.57,7.27,48.27,30.13
103427,-0.12,-1.07,-0.19,-55.88,8.93,38.82,30.13
103437,-0.15,-1.11,-0.19,-67.45,3.91,26.53,30.13
103447,-0.15,-1.16,-0.17,-74.81,-5.97,12.98,30.08
103457,-0.15,-1.23,-0.12,-77.27,-17.42,0.35,30.08
103467,-0.13,-1.27,-0.09,-75.50,-25.47,-11.08,30.08
103477,-0.13,-1.30,-0.06,-72.60,-35.36,-18.17,29.99
103487,-0.13,-1.34,-0.02,-64.26,-42.85,-21.95,29.99
103497,-0.10,-1.33,-0.03,-52.56,-34.41,-22.02,30.18
103507,-0.08,-1.29,-0.04,-39.68,-25.18,-15.89,30.08
103517,-0.04,-1.24,-0.06,-24.00,-13.02,-7.66,30.04
103527,-0.01,-1.18,-0.13,-9.47,3.05,-1.79,30.13
103537,0.02,-1.16,-0.19,0.40,16.31,1.22,30.13
103547,-0.01,-1.14,-0.24,3.98,20.79,0.50,30.22
103557,-0.03,-1.10,-0.27,0.52,17.60,-1.40,30.04
103567,-0.04,-1.03,-0.30,-2.18,9.53,-5.86,30.04
103577,-0.09,-1.00,-0.33,-7.56,2.96,-9.83,30.08
103587,-0.13,-0.95,-0.37,-11.82,-7.18,-8.31,30.08
103597,-0.15,-0.92,-0.42,-16.67,-10.52,0.73,30.18
103607,-0.18,-0.92,-0.43,-20.58,-11.73,15.83,30.08
103617,-0.19,-0.97,-0.40,-19.79,-5.97,33.10,30.08
103627,-0.21,-1.00,-0.35,-18.11,9.15,51.19,29.99
103637,-0.25,-1.08,-0.25,-13.02,13.68,66.93,30.18
103647,-0.25,-1.18,-0.18,-12.73,15.89,74.47,30.04
103657,-0.26,-1.26,-0.07,-11.27,8.73,72.90,30.04
103667,-0.23,-1.30,-0.03,-9.62,-1.80,62.87,30.04
103677,-0.18,-1.28,-0.07,-9.89,-12.11,47.13,30.13
103687,-0.14,-1.25,-0.13,-9.73,-15.91,29.34,30.13
103697,-0.10,-1.19,-0.22,-14.31,-14.15,13.97,30.13
103707,-0.12,-1.15,-0.23,-22.32,-13.60,2.90,29.99
103717,-0.14,-1.12,-0.25,-33.77,-11.95,-4.27,30.08
103727,-0.15,-1.11,-0.24,-41.02,-9.08,-7.25,30.08
103737,-0.16,-1.11,-0.20,-43.80,-7.88,-8.93,30.18
103747,-0.15,-1.13,-0.15,-41.86,-9.24,-11.63,30.08
103757,-0.14,-1.15,-0.13,-36.89,-14.31,-16.67,30.08
103767,-0.11,-1.17,-0.14,-28.38,-18.87,-23.54,30.08
103777,-0.06,-1.18,-0.15,-20.03,-22.09,-29.94,29.99
103787,-0.02,-1.17,-0.21,-13.60,-13.95,-32.99,30.13
103797,0.01,-1.15,-0.24,-9.66,0.47,-30.31,30.04
103807,0.06,-1.10,-0.29,-3.77,27.27,-22.43,30.04
103817,0.09,-1.08,-0.36,4.99,63.24,-14.35,30.13
103827,0.07,-1.08,-0.37,11.16,93.98,-8.29,30.04
103837,0.03,-1.08,-0.37,7.63,112.14,-7.57,30.18
103847,-0.05,-1.10,-0.29,-3.28,105.92,-16.50,30.04
103857,-0.11,-1.12,-0.22,-13.57,84.52,-33.45,29.99
103867,-0.19,-1.10,-0.17,-16.72,56.12,-50.09,30.08
103877,-0.27,-1.07,-0.14,-11.27,22.11,-60.50,29.99
103887,-0.29,-1.04,-0.19,-1.02,-3.24,-58.41,30.08
103897,-0.30,-0.98,-0.23,7.92,-13.62,-44.38,30.08
103907,-0.29,-0.97,-0.22,16.81,-12.05,-24.61,30.08
103917,-0.29,-1.00,-0.20,19.47,-2.31,-5.39,30.04
103927,-0.30,-1.04,-0.19,13.89,1.10,9.82,30.04
103937,-0.24,-1.09,-0.19,6.24,1.05,19.18,30.13
103947,-0.17,-1.12,-0.23,-1.30,3.19,21.01,30.04
103957,-0.06,-1.13,-0.32,-10.64,2.93,15.24,30.13
103967,-0.04,-1.11,-0.33,-18.27,-5.62,7.66,30.08
103977,-0.01,-1.11,-0.34,-24.20,-6.24,4.24,30.08
103987,-0.00,-1.10,-0.35,-30.23,-3.22,4.24,30.08
103997,-0.02,-1.11,-0.32,-34.76,-4.20,4.95,30.18
104007,-0.02,-1.13,-0.33,-38.18,-5.91,5.91,30.08
104017,-0.00,-1.12,-0.31,-40.56,-10.32,3.62,30.18
104027,0.00,-1.09,-0.34,-43.69,-16.52,-0.87,30.08
104037,0.00,-1.08,-0.36,-47.16,-22.09,-6.79,30.04
104047,-0.03,-1.06,-0.38,-45.77,-21.21,-11.69,30.13
104057,-0.10,-1.01,-0.37,-39.50,-14.93,-12.35,30.04
104067,-0.16,-1.01,-0.31,-30.14,-10.44,-12.85,30.13
104077,-0.23,-1.05,-0.24,-19.63,-11.97,-14.20,30.04
104087,-0.28,-1.06,-0.22,-13.13,-18.96,-16.55,30.08
104097,-0.28,-1.05,-0.21,-10.08,-27.57,-18.37,29.99
104107,-0.25,-1.04,-0.26,-7.40,-30.93,-15.54,30.08
104117,-0.21,-1.04,-0.31,-2.63,-21.83,-7.22,30.08
104127,-0.16,-1.05,-0.32,0.21,-7.59,2.21,30.08
104137,-0.13,-1.06,-0.33,-1.34,3.21,8.64,30.08
104147,-0.09,-1.09,-0.32,-8.11,8.84,7.92,30.08
104157,-0.09,-1.11,-0.28,-15.05,5.42,0.93,30.13
104167,-0.10,-1.11,-0.25,-18.05,-0.46,-8.93,30.13
104177,-0.14,-1.07,-0.25,-17.31,-6.61,-15.60,30.04
104187,-0.19,-1.05,-0.24,-15.48,-9.95,-16.85,30.04
104197,-0.22,-1.04,-0.21,-13.54,-11.83,-11.71,30.13
104207,-0.21,-1.03,-0.22,-10.60,-9.63,-2.46,30.04
104217,-0.17,-1.05,-0.22,-5.45,-1.21,7.83,30.08
104227,-0.13,-1.06,-0.24,-0.50,10.61,18.03,30.08
104237,-0.10,-1.07,-0.24,3.98,19.50,25.28,29.99
104247,-0.08,-1.11,-0.24,5.95,24.67,26.63,30.08
104257,-0.07,-1.14,-0.22,5.63,25.54,20.72,30.18
104267,-0.11,-1.13,-0.21,2.05,19.47,11.68,30.08
104277,-0.14,-1.13,-0.21,-0.96,6.99,2.46,30.13
104287,-0.16,-1.13,-0.23,-0.81,-5.08,-4.67,30.13
104297,-0.15,-1.14,-0.27,2.35,-12.21,-8.32,30.13
104307,-0.13,-1.15,-0.29,5.44,-13.63,-9.24,30.04
104317,-0.10,-1.16,-0.31,7.34,-12.26,-7.13,30.08
104327,-0.10,-1.19,-0.31,8.87,-8.56,-4.72,30.04
104337,-0.08,-1.22,-0.30,9.54,-3.97,-4.56,30.13
104347,-0.08,-1.25,-0.26,10.70,-1.11,-7.44,30.08
104357,-0.09,-1.28,-0.25,13.05,-5.30,-12.11,30.18
104367,-0.08,-1.30,-0.25,16.50,-9.37,-17.65,29.99
104377,-0.06,-1.29,-0.27,18.69,-13.97,-23.21,30.08
104387,-0.02,-1.30,-0.32,16.15,-16.40,-28.27,30.08
104397,0.04,-1.27,-0.34,7.63,-15.40,-35.05,30.08
104407,0.07,-1.25,-0.31,-1.83,-14.78,-42.29,30.04
104417,0.10,-1.25,-0.28,-5.10,-13.21,-49.01,30.13
104427,0.13,-1.29,-0.28,-5.44,-9.66,-55.25,30.04
104437,0.15,-1.34,-0.27,-6.17,-7.11,-62.70,30.04
104447,0.14,-1.34,-0.22,-8.98,-9.94,-69.50,29.99
104457,0.09,-1.30,-0.23,-11.88,-6.47,-71.94,30.04
104467,0.03,-1.26,-0.23,-14.15,1.89,-67.88,30.08
104477,-0.04,-1.27,-0.20,-7.79,16.47,-56.20,30.18
104487,-0.09,-1.28,-0.19,3.11,32.32,-39.73,30.08
104497,-0.11,-1.27,-0.16,10.46,42.49,-24.90,30.08
104507,-0.10,-1.24,-0.21,15.74,49.53,-15.25,30.18
104517,-0.13,-1.22,-0.20,16.58,48.99,-10.53,30.08
104527,-0.07,-1.17,-0.25,15.91,44.61,-11.85,30.04
104537,-0.07,-1.14,-0.26,17.86,36.95,-15.22,30.13
104547,-0.07,-1.11,-0.28,18.76,28.79,-17.98,30.13
104557,-0.08,-1.09,-0.32,17.98,22.23,-18.99,30.13
104567,-0.08,-1.08,-0.31,13.92,18.06,-18.44,30.13
104577,-0.10,-1.08,-0.28,8.84,11.48,-16.46,30.18
104587,-0.12,-1.08,-0.22,6.98,3.68,-14.76,30.18
104597,-0.11,-1.12,-0.17,10.81,-4.15,-14.09,29.99
104607,-0.09,-1.14,-0.14,19.74,-12.87,-13.59,30.18
104617,-0.09,-1.14,-0.17,29.85,-19.73,-11.36,30.08
104627,-0.07,-1.11,-0.19,36.84,-28.72,-3.47,30.08
104637,-0.02,-1.09,-0.25,42.47,-25.63,5.59,30.13
104647,0.02,-1.06,-0.30,41.22,-9.89,12.49,30.04
104657,0.04,-1.03,-0.35,31.47,5.53,15.10,30.04
104667,0.01,-1.04,-0.31,14.95,11.47,13.97,30.04
104677,-0.03,-1.07,-0.25,-3.82,3.44,10.37,30.04
104687,-0.06,-1.06,-0.24,-20.26,-11.22,7.88,30.13
104697,-0.07,-1.03,-0.26,-32.76,-26.72,7.07,30.08
104707,-0.04,-1.04,-0.27,-39.21,-39.77,8.46,30.18
104717,-0.01,-1.05,-0.29,-41.91,-45.60,9.76,30.08
104727,0.04,-1.06,-0.32,-41.74,-48.61,11.04,30.08
104737,0.09,-1.05,-0.35,-37.66,-44.23,12.17,30.18
104747,0.10,-1.08,-0.32,-31.37,-35.54,13.62,30.08
104757,0.11,-1.09,-0.34,-20.15,-24.69,17.07,30.08
104767,0.12,-1.08,-0.35,-9.85,-9.39,21.18,30.13
104777,0.10,-1.06,-0.35,-2.37,2.17,24.11,29.94
104787,0.09,-1.03,-0.37,1.89,8.63,24.09,30.13
104797,0.08,-1.01,-0.38,2.02,8.66,20.69,30.08
104807,0.07,-0.99,-0.42,-0.67,3.62,16.75,30.13
104817,0.06,-0.96,-0.44,-6.53,4.64,13.18,30.08
104827,0.04,-0.96,-0.43,-11.83,2.76,9.66,30.08
104837,0.02,-0.95,-0.43,-16.76,2.44,6.29,30.08
104847,0.01,-0.92,-0.42,-21.18,1.34,3.40,30.08
104857,-0.01,-0.91,-0.38,-21.19,-1.25,-0.64,30.18
104867,-0.01,-0.91,-0.33,-11.45,-3.19,-6.23,30.08
104877,-0.01,-0.91,-0.33,2.47,-1.44,-10.17,30.13
104887,-0.02,-0.91,-0.33,17.39,0.84,-10.18,30.13
104897,-0.03,-0.91,-0.31,28.35,3.25,-9.16,30.04
104907,-0.05,-0.91,-0.27,33.91,1.07,-7.13,30.13
104917,-0.06,-0.91,-0.28,33.91,-3.57,-3.94,30.13
104927,-0.05,-0.92,-0.28,30.61,-8.37,-1.01,30.08
104937,-0.03,-0.93,-0.29,27.02,-14.49,2.61,30.08
104947,0.00,-0.93,-0.27,20.76,-14.75,4.27,29.99
104957,0.03,-0.92,-0.27,17.16,-16.43,4.05,30.08
104967,0.05,-0.93,-0.28,14.99,-16.18,3.21,29.99
104977,0.08,-0.94,-0.27,11.44,-13.16,1.28,30.18
104987,0.08,-0.95,-0.28,7.57,-10.15,-1.85,30.08
104997,0.08,-0.95,-0.26,5.98,-7.19,-4.49,30.18
105007,0.07,-0.94,-0.25,6.93,-3.42,-6.21,30.04
105017,0.05,-0.96,-0.23,11.97,0.17,-6.73,30.04
105027,0.04,-0.98,-0.22,20.73,4.58,-5.30,30.04
105037,0.01,-0.99,-0.19,29.56,6.06,-4.03,30.04
105047,0.02,-0.98,-0.19,36.29,6.76,-3.08,30.04
105057,0.02,-0.96,-0.19,40.26,6.82,-3.18,30.08
105067,-0.00,-0.96,-0.19,41.24,8.70,-4.09,30.08
105077,-0.02,-0.96,-0.19,40.37,7.69,-5.53,30.08
105087,-0.03,-0.95,-0.17,36.96,4.52,-8.29,30.08
105097,-0.02,-0.93,-0.15,32.79,0.43,-11.85,30.18
105107,-0.02,-0.92,-0.13,28.17,-3.57,-15.47,30.08
105117,-0.01,-0.91,-0.13,23.95,-5.28,-17.63,30.04
105127,0.00,-0.92,-0.13,20.49,-5.54,-17.95,30.13
105137,-0.00,-0.93,-0.13,18.43,-4.08,-16.69,30.04
105147,-0.02,-0.96,-0.10,16.79,-3.80,-15.13,30.13
105157,-0.03,-0.98,-0.09,16.09,-6.96,-13.73,30.04
105167,-0.01,-0.99,-0.07,15.85,-9.76,-11.63,30.13
105177,0.01,-0.98,-0.09,17.22,-10.79,-9.98,29.99
105187,0.02,-0.98,-0.09,21.45,-8.99,-9.19,29.99
105197,0.04,-0.97,-0.12,25.89,-6.29,-10.61,30.08
105207,0.06,-0.93,-0.15,28.20,-3.66,-11.68,30.08
105217,0.05,-0.92,-0.19,29.02,-2.67,-12.40,30.08
105227,0.05,-0.91,-0.22,26.85,-1.25,-12.11,30.08
105237,0.03,-0.89,-0.21,22.23,-2.35,-10.79,30.08
105247,0.05,-0.89,-0.20,15.80,-1.77,-9.66,30.13
105257,0.07,-0.87,-0.18,9.91,-0.84,-8.79,30.04
105267,0.08,-0.87,-0.17,5.95,0.92,-9.30,30.04
105277,0.10,-0.87,-0.13,3.65,2.92,-10.93,30.18
105287,0.09,-0.90,-0.12,3.73,4.17,-14.72,30.13
105297,0.08,-0.92,-0.11,4.27,3.80,-18.66,30.13
105307,0.05,-0.97,-0.08,4.81,6.79,-21.68,30.08
105317,0.04,-0.99,-0.04,7.51,8.72,-23.83,30.08
105327,0.02,-1.02,-0.00,13.36,12.64,-24.72,30.08
105337,0.02,-1.02,0.04,22.02,16.67,-23.42,30.18
105347,0.02,-1.01,0.07,32.37,14.75,-21.85,30.18
105357,0.02,-1.02,0.09,41.02,15.28,-20.06,30.13
105367,0.02,-1.02,0.12,47.98,15.02,-18.58,30.13
105377,-0.00,-1.00,0.14,52.47,12.47,-15.53,30.13
105387,-0.01,-1.03,0.13,57.77,5.98,-11.30,30.13
105397,-0.01,-1.09,0.14,61.97,2.82,-7.37,30.04
105407,-0.01,-1.15,0.17,66.64,0.92,-5.48,30.08
105417,0.01,-1.19,0.19,69.86,-3.69,-6.75,30.08
105427,0.06,-1.17,0.15,67.33,-1.25,-10.46,30.08
105437,0.11,-1.10,0.14,63.83,-0.78,-14.24,30.18
105447,0.14,-1.04,0.11,61.01,3.21,-18.46,30.08
105457,0.17,-0.99,0.10,55.02,5.85,-23.65,29.99
105467,0.16,-0.92,0.08,48.09,2.84,-28.29,30.08
105477,0.19,-0.89,0.03,42.82,1.39,-32.90,30.08
105487,0.15,-0.88,-0.01,37.02,0.67,-35.62,30.13
105497,0.11,-0.86,-0.03,31.31,0.46,-34.27,30.04
105507,0.07,-0.84,-0.03,22.40,-0.11,-28.67,30.13
105517,0.05,-0.86,-0.00,12.58,-2.96,-23.07,30.13
105527,0.05,-0.88,0.05,3.80,-6.64,-18.37,30.13
105537,0.07,-0.91,0.09,0.23,-9.91,-15.45,30.08
105547,0.10,-0.95,0.12,1.21,-10.78,-13.05,30.18
105557,0.12,-0.98,0.12,4.82,-11.11,-12.21,30.18
105567,0.15,-1.01,0.14,8.37,-9.57,-12.40,30.08
105577,0.19,-0.99,0.14,10.87,-6.08,-14.31,30.08
105587,0.21,-0.96,0.14,14.69,-2.35,-17.73,30.08
105597,0.21,-0.93,0.11,18.37,-1.24,-21.82,30.08
105607,0.20,-0.89,0.05,20.84,0.75,-23.15,30.13
105617,0.19,-0.86,0.03,20.34,1.57,-23.71,30.13
105627,0.18,-0.85,0.02,15.86,2.05,-24.49,30.13
105637,0.15,-0.79,0.02,8.23,2.23,-22.05,30.13
105647,0.14,-0.76,0.03,3.71,1.15,-17.08,30.04
105657,0.13,-0.75,0.06,0.00,2.61,-9.19,30.13
105667,0.13,-0.74,0.12,-0.95,2.29,-0.31,30.08
105677,0.12,-0.75,0.19,1.92,3.44,7.44,30.18
105687,0.10,-0.81,0.25,9.62,4.75,12.96,30.08
105697,0.07,-0.90,0.29,19.16,4.87,18.79,29.99
105707,0.04,-0.98,0.33,28.20,3.97,24.79,30.08
105717,0.05,-1.01,0.37,34.37,5.10,31.45,30.18
105727,0.05,-1.01,0.36,37.73,4.09,37.53,30.13
105737,0.08,-1.02,0.33,41.31,8.60,42.66,30.04
105747,0.09,-1.04,0.27,46.61,12.95,46.17,30.04
105757,0.10,-1.02,0.23,46.76,9.54,45.16,30.04
105767,0.15,-1.01,0.17,43.28,4.58,40.67,30.13
105777,0.20,-0.98,0.13,34.44,-0.03,31.66,30.13
105787,0.25,-0.98,0.11,23.02,-1.31,18.90,30.08
105797,0.28,-0.96,0.11,12.03,-0.81,4.92,30.08
105807,0.29,-0.95,0.12,2.92,0.20,-9.13,30.08
105817,0.27,-0.95,0.15,-3.98,-1.42,-22.60,30.08
105827,0.25,-0.94,0.17,-7.92,-0.11,-33.24,30.18
105837,0.23,-0.95,0.19,-9.36,2.03,-40.72,30.08
105847,0.19,-0.93,0.22,-11.10,4.53,-44.78,29.99
105857,0.16,-0.91,0.23,-9.82,6.34,-44.76,30.13
105867,0.13,-0.91,0.24,-6.26,10.76,-41.27,30.13
105877,0.11,-0.89,0.24,-3.57,13.48,-34.95,30.13
105887,0.12,-0.87,0.25,-1.36,16.89,-27.71,30.04
105897,0.12,-0.86,0.26,-0.29,17.01,-21.60,30.13
105907,0.13,-0.83,0.29,0.17,18.06,-16.95,30.04
105917,0.13,-0.81,0.30,1.45,18.03,-12.72,30.08
105927,0.13,-0.81,0.30,2.73,17.59,-8.82,30.18
105937,0.15,-0.80,0.29,3.18,19.60,-5.15,30.08
105947,0.14,-0.81,0.28,4.95,19.51,-3.31,29.99
105957,0.14,-0.83,0.29,5.57,21.65,-4.18,30.08
105967,0.14,-0.82,0.29,4.46,21.31,-7.45,29.99
105977,0.14,-0.79,0.29,-0.85,19.11,-11.65,30.04
105987,0.12,-0.75,0.31,-7.40,15.92,-15.34,30.13
105997,0.10,-0.75,0.31,-10.73,11.92,-18.50,30.04
106007,0.06,-0.77,0.29,-8.98,8.60,-18.60,30.04
106017,0.02,-0.82,0.24,-5.59,6.73,-13.33,30.18
106027,-0.02,-0.87,0.25,-5.57,3.82,-3.63,30.04
106037,-0.01,-0.91,0.26,-7.11,1.45,6.81,30.08
106047,0.03,-0.93,0.30,-10.43,0.79,14.35,30.08
106057,0.09,-0.95,0.29,-11.69,-1.36,19.07,30.18
106067,0.15,-0.95,0.30,-11.21,-1.11,20.05,30.18
106077,0.18,-0.94,0.31,-9.56,-3.80,17.44,29.99
106087,0.23,-0.93,0.30,-8.76,-3.57,13.28,29.99
106097,0.25,-0.94,0.29,-7.08,-2.29,8.84,30.18
106107,0.24,-0.97,0.27,-6.50,0.09,5.02,30.13
106117,0.19,-0.99,0.26,-7.11,2.34,2.17,30.22
106127,0.17,-1.01,0.27,-7.27,2.78,-0.12,30.13
106137,0.15,-1.02,0.29,-7.30,1.04,-1.94,30.04
106147,0.15,-1.01,0.28,-5.59,-0.63,-2.21,30.08
106157,0.15,-1.02,0.26,-3.33,-1.04,-0.85,30.13
106167,0.16,-1.01,0.25,-1.76,0.78,1.94,30.08
106177,0.15,-1.00,0.24,-1.50,2.75,5.04,30.08
106187,0.16,-1.00,0.22,-2.67,4.93,7.91,30.08
106197,0.16,-1.00,0.22,-5.27,5.65,10.24,30.08
106207,0.17,-1.00,0.22,-8.03,6.35,11.53,30.18
106217,0.18,-1.02,0.22,-10.06,5.65,11.50,30.08
106227,0.19,-1.03,0.23,-11.51,4.87,9.68,30.04
106237,0.19,-1.05,0.24,-12.32,3.95,6.85,30.04
106247,0.19,-1.05,0.26,-12.12,2.15,3.28,30.13
106257,0.19,-1.04,0.27,-11.42,1.57,0.34,30.13
106267,0.19,-1.03,0.27,-10.56,1.56,-0.98,30.13
106277,0.18,-1.01,0.25,-9.25,2.29,-1.05,30.08
106287,0.17,-1.01,0.25,-7.73,2.67,-0.38,30.18
106297,0.16,-1.02,0.23,-6.53,2.93,0.53,29.99
106307,0.16,-1.01,0.23,-5.69,2.60,1.54,30.18
106317,0.17,-1.01,0.22,-5.08,3.21,2.20,30.18
106327,0.17,-0.99,0.22,-5.50,3.65,2.43,30.08
106337,0.18,-0.98,0.22,-5.94,2.90,2.52,30.13
106347,0.18,-0.98,0.21,-5.94,4.35,3.18,30.04
106357,0.17,-1.00,0.21,-6.20,4.98,4.35,30.13
106367,0.16,-1.02,0.22,-6.37,5.16,6.02,30.08
106377,0.15,-1.03,0.23,-7.89,6.27,6.43,30.04
106387,0.15,-1.04,0.24,-8.92,6.12,5.60,30.13
106397,0.15,-1.05,0.24,-9.16,5.92,4.37,30.08
106407,0.14,-1.05,0.24,-9.05,4.34,2.79,30.08
106417,0.14,-1.06,0.24,-9.27,3.39,1.54,30.08
106427,0.14,-1.04,0.24,-9.08,2.78,1.22,30.08
106437,0.15,-1.03,0.24,-8.66,2.72,0.90,30.08
106447,0.15,-1.02,0.23,-8.44,2.24,0.84,30.08
106457,0.15,-1.02,0.22,-7.62,1.37,0.53,30.13
106467,0.14,-1.01,0.22,-7.01,0.69,1.01,30.13
106477,0.15,-1.02,0.20,-6.81,1.08,1.39,30.13
106487,0.15,-1.04,0.18,-7.47,1.36,2.11,30.13
106497,0.15,-1.04,0.20,-8.84,1.42,2.53,30.08
106507,0.15,-1.04,0.19,-10.18,1.77,2.50,30.13
106517,0.17,-1.04,0.19,-10.11,1.40,1.91,30.08
106527,0.17,-1.03,0.19,-9.42,1.45,1.05,30.08
106537,0.17,-1.04,0.19,-8.05,1.53,0.02,30.08
106547,0.16,-1.04,0.18,-7.33,1.92,-0.75,29.99
106557,0.15,-1.03,0.19,-7.66,1.08,-1.15,30.08
106567,0.15,-1.04,0.20,-8.09,1.54,-1.51,29.99
106577,0.15,-1.03,0.20,-8.43,1.62,-0.95,30.13
106587,0.15,-1.03,0.20,-7.94,0.85,-0.34,30.13
106597,0.15,-1.02,0.19,-6.64,1.25,0.66,30.04
106607,0.16,-1.01,0.18,-5.95,1.65,2.02,30.13
106617,0.16,-1.01,0.17,-5.13,2.38,3.05,30.04
106627,0.16,-1.00,0.17,-5.77,3.88,3.83,30.08
106637,0.17,-1.01,0.17,-6.75,5.05,4.27,30.08
106647,0.15,-1.02,0.16,-8.03,5.83,3.60,30.18
106657,0.14,-1.02,0.19,-9.57,4.85,2.85,30.08
106667,0.15,-1.03,0.19,-10.37,3.83,1.77,30.18
106677,0.14,-1.03,0.21,-11.48,3.54,0.61,30.08
106687,0.13,-1.04,0.21,-11.30,2.78,-0.34,30.08
106697,0.13,-1.04,0.22,-10.29,2.14,-0.82,30.04
106707,0.12,-1.04,0.22,-8.35,1.45,-0.76,30.04
106717,0.11,-1.04,0.21,-6.70,1.76,0.23,30.04
106727,0.12,-1.03,0.21,-5.82,1.94,1.24,30.13
106737,0.12,-1.02,0.20,-5.60,2.11,2.79,30.04
106747,0.12,-1.01,0.20,-6.15,3.44,3.22,30.13
106757,0.12,-1.01,0.18,-6.29,2.82,2.79,30.08
106767,0.12,-1.00,0.19,-7.24,2.05,2.69,29.99
106777,0.13,-1.00,0.18,-8.67,0.46,1.94,30.08
106787,0.13,-1.00,0.20,-9.44,-1.73,0.00,29.99
106797,0.14,-0.99,0.19,-9.74,-1.24,0.03,30.18
106807,0.13,-0.99,0.19,-8.61,-0.69,0.26,30.08
106817,0.13,-0.99,0.18,-6.69,-0.38,2.34,30.18
106827,0.12,-1.01,0.17,-6.06,0.81,5.21,30.04
106837,0.13,-1.01,0.17,-6.40,1.30,8.02,30.04
106847,0.14,-1.02,0.17,-7.92,2.31,8.73,30.13
106857,0.15,-1.02,0.18,-8.85,2.66,7.28,30.13
106867,0.16,-1.03,0.19,-9.25,2.53,4.23,30.13
106877,0.15,-1.03,0.19,-8.21,1.44,1.59,30.04
106887,0.14,-1.03,0.19,-6.92,0.53,-0.14,29.99
106897,0.14,-1.04,0.19,-5.95,0.34,-0.76,30.08
106907,0.13,-1.04,0.18,-6.11,0.63,-0.20,30.08
106917,0.13,-1.04,0.18,-6.56,1.85,0.23,30.18
106927,0.14,-1.02,0.18,-7.07,2.26,-0.24,30.08
106937,0.14,-1.02,0.18,-7.86,2.82,-1.56,30.08
106947,0.14,-1.02,0.20,-8.90,1.50,-2.82,30.04
106957,0.15,-1.01,0.19,-10.50,0.69,-3.85,30.13
106967,0.15,-1.00,0.19,-12.24,-0.12,-5.48,30.04
106977,0.15,-0.99,0.19,-13.60,-0.63,-6.66,29.99
106987,0.14,-1.00,0.20,-13.89,-0.20,-6.58,30.13
106997,0.12,-1.01,0.21,-13.16,1.11,-4.89,30.04
107007,0.11,-1.01,0.21,-12.05,0.37,-1.33,30.08
107017,0.11,-1.02,0.21,-11.97,1.33,2.63,30.08
107027,0.10,-1.03,0.23,-11.68,1.62,5.45,30.08
107037,0.12,-1.03,0.23,-10.79,1.24,7.33,30.08
107047,0.12,-1.04,0.23,-8.64,1.33,7.83,30.08
107057,0.13,-1.03,0.21,-6.75,0.29,7.74,30.13
107067,0.13,-1.03,0.20,-6.84,-0.32,7.66,30.04
107077,0.12,-1.03,0.18,-8.24,-2.20,7.68,30.13
107087,0.12,-1.01,0.19,-9.62,-2.75,7.37,30.13
107097,0.14,-0.98,0.15,-9.40,-1.77,7.36,30.13
107107,0.16,-0.95,0.12,-8.41,-0.92,7.56,30.18
107117,0.17,-0.91,0.12,-6.90,-0.18,8.02,30.08
107127,0.18,-0.89,0.09,-7.08,1.13,7.39,30.08
107137,0.18,-0.89,0.08,-9.51,1.05,5.66,30.08
107147,0.17,-0.89,0.07,-12.93,1.57,3.94,30.18
107157,0.15,-0.92,0.09,-15.51,-0.15,1.80,29.99
107167,0.14,-0.93,0.09,-16.31,-0.96,0.47,30.08
107177,0.14,-0.95,0.10,-16.26,-1.11,0.35,30.04
107187,0.13,-0.95,0.11,-15.88,-0.15,0.98,30.13
107197,0.13,-0.95,0.12,-13.51,0.64,2.08,30.04
107207,0.12,-0.96,0.12,-10.44,1.97,3.97,30.13
107217,0.11,-0.96,0.12,-7.36,3.89,6.32,30.13
107227,0.11,-0.96,0.13,-4.70,4.96,7.97,30.13
107237,0.11,-0.97,0.11,-4.15,6.27,9.21,30.08
107247,0.10,-0.98,0.09,-6.29,6.99,8.93,30.18
107257,0.10,-0.98,0.10,-10.49,6.05,7.36,30.18
107267,0.10,-0.98,0.11,-14.31,4.14,5.02,29.99
107277,0.08,-0.98,0.12,-16.90,1.45,2.08,30.18
107287,0.08,-0.99,0.12,-18.40,-1.63,0.99,30.08
107297,0.07,-1.01,0.12,-18.23,-3.19,1.10,30.04
107307,0.07,-1.02,0.11,-17.13,-2.31,2.82,30.13
107317,0.06,-1.06,0.10,-17.07,-1.85,5.44,30.13
107327,0.05,-1.08,0.11,-16.78,-2.64,7.88,30.13
107337,0.05,-1.10,0.11,-16.52,-2.44,9.22,30.13
107347,0.06,-1.10,0.10,-16.40,-3.30,9.66,30.04
107357,0.08,-1.07,0.08,-17.28,-5.45,8.60,30.18
107367,0.09,-1.01,0.06,-20.29,-7.68,8.15,30.08
107377,0.09,-0.95,0.03,-23.34,-10.64,10.26,30.08
107387,0.11,-0.89,-0.00,-25.95,-10.34,15.86,30.08
107397,0.11,-0.88,-0.01,-27.42,-7.22,22.75,30.08
107407,0.11,-0.91,-0.01,-28.12,-4.52,27.73,30.08
107417,0.12,-0.96,0.03,-27.48,-2.08,29.16,30.04
107427,0.12,-1.00,0.05,-27.45,-1.98,27.28,30.13
107437,0.14,-1.03,0.08,-27.45,-2.55,22.41,30.04
107447,0.16,-1.04,0.11,-27.01,-3.91,14.49,30.13
107457,0.19,-1.04,0.12,-25.62,-2.84,6.24,30.08
107467,0.19,-1.05,0.12,-21.40,-1.62,-1.30,30.04
107477,0.16,-1.09,0.11,-16.79,0.20,-7.34,30.13
107487,0.13,-1.14,0.09,-12.29,2.93,-11.28,30.08
107497,0.10,-1.17,0.08,-9.94,4.58,-14.72,30.18
107507,0.07,-1.21,0.09,-9.57,3.88,-19.82,30.08
107517,0.07,-1.22,0.12,-8.15,1.91,-25.45,30.08
107527,0.06,-1.24,0.11,-7.39,-1.36,-31.01,29.99
107537,0.06,-1.25,0.13,-5.79,-4.67,-37.44,30.13
107547,0.07,-1.23,0.14,-5.27,-7.95,-45.10,30.13
107557,0.08,-1.19,0.14,-5.98,-11.16,-52.47,30.13
107567,0.12,-1.10,0.14,-8.24,-13.74,-59.74,30.04
