Timestamp,Acce_X,Acce_Y,Acce_Z,Gyro_X,Gyro_Y,Gyro_Z,Temp
17957,-0.18,-0.30,1.02,-6.99,-2.82,0.66,33.57
17967,-0.16,-0.30,1.01,-7.44,-3.31,-0.27,33.47
17977,-0.14,-0.30,0.99,-9.18,-4.53,-1.94,33.57
17987,-0.12,-0.29,0.97,-12.60,-3.85,-3.27,33.47
17997,-0.12,-0.28,0.96,-15.31,-1.59,-4.67,33.47
18007,-0.10,-0.29,0.96,-18.85,1.50,-6.49,33.47
18017,-0.11,-0.30,0.97,-19.48,3.11,-7.91,33.47
18027,-0.12,-0.32,0.99,-18.63,3.69,-10.55,33.47
18037,-0.15,-0.34,1.01,-14.50,-2.58,-13.42,33.47
18047,-0.19,-0.36,1.03,-9.89,-8.93,-14.89,33.47
18057,-0.23,-0.35,0.92,-7.82,-12.38,-13.53,33.57
18067,-0.30,-0.33,1.02,-4.95,-12.32,-9.77,33.52
18077,-0.33,-0.34,1.00,-2.50,-16.96,-5.94,33.42
18087,-0.36,-0.33,0.96,-2.11,-18.40,-1.57,33.52
18097,-0.37,-0.32,0.95,-2.92,-17.59,1.47,33.52
18107,-0.43,-0.31,0.92,-4.75,-23.25,3.73,33.52
18117,-0.46,-0.28,0.87,-9.37,-19.95,7.76,33.52
18127,-0.50,-0.27,0.88,-14.34,-17.28,13.31,33.52
18137,-0.52,-0.27,0.88,-17.59,-12.81,19.21,33.52
18147,-0.53,-0.28,0.89,-20.90,-6.58,25.30,33.61
18157,-0.56,-0.29,0.91,-24.67,0.79,31.86,33.52
18167,-0.57,-0.31,0.94,-26.81,6.35,39.16,33.52
18177,-0.59,-0.33,1.00,-28.15,9.53,46.21,33.52
18187,-0.60,-0.34,1.05,-27.95,8.00,51.95,33.52
18197,-0.59,-0.35,1.09,-26.63,2.53,55.66,33.52
18207,-0.61,-0.39,1.10,-22.72,-8.98,59.53,33.61
18217,-0.57,-0.39,1.12,-18.99,-17.79,62.24,33.52
18227,-0.53,-0.38,1.14,-14.17,-27.01,64.47,33.52
18237,-0.49,-0.40,1.09,-8.84,-31.83,66.31,33.52
18247,-0.45,-0.39,1.05,-6.46,-32.43,67.59,33.52
18257,-0.40,-0.38,0.99,-6.05,-32.81,68.82,33.52
18267,-0.37,-0.37,0.93,-7.30,-30.23,71.24,33.47
18277,-0.33,-0.38,0.92,-9.80,-26.58,73.62,33.61
18287,-0.31,-0.38,0.93,-11.39,-25.76,74.67,33.52
18297,-0.27,-0.41,0.91,-11.42,-24.40,75.08,33.52
18307,-0.24,-0.42,0.90,-13.11,-19.65,75.01,33.47
18317,-0.23,-0.43,0.91,-12.73,-17.37,74.44,33.52
18327,-0.20,-0.44,0.90,-13.22,-12.82,74.72,33.61
18337,-0.22,-0.44,0.91,-13.89,-12.61,74.99,33.57
18347,-0.19,-0.46,0.91,-15.60,-13.86,73.33,33.57
18357,-0.19,-0.46,0.96,-14.20,-20.99,71.69,33.57
18367,-0.14,-0.47,0.82,-9.60,-29.13,67.34,33.47
18377,-0.20,-0.45,0.93,-15.86,-22.81,64.81,33.47
18387,-0.19,-0.42,0.98,-15.48,-19.40,66.31,33.47
18397,-0.20,-0.43,1.00,-14.85,-12.52,68.27,33.57
18407,-0.23,-0.46,0.98,-14.41,-5.05,72.92,33.47
18417,-0.23,-0.46,1.02,-13.44,-0.37,76.50,33.47
18427,-0.22,-0.46,1.04,-11.25,-1.88,77.42,33.47
18437,-0.23,-0.46,1.04,-10.11,-6.43,74.81,33.57
18447,-0.23,-0.45,1.05,-10.87,-12.21,71.16,33.57
18457,-0.26,-0.45,1.08,-8.37,-19.79,69.15,33.57
18467,-0.28,-0.44,1.08,-3.44,-23.22,68.43,33.47
18477,-0.31,-0.43,1.07,1.18,-21.86,69.65,33.38
18487,-0.40,-0.37,1.12,0.14,-32.47,75.50,33.47
18497,-0.31,-0.43,1.08,11.73,-33.34,74.20,33.57
18507,-0.31,-0.37,0.96,8.81,-25.62,73.63,33.47
18517,-0.29,-0.38,0.96,-1.45,-16.14,74.11,33.57
18527,-0.26,-0.41,1.01,-8.93,-8.67,76.70,33.47
18537,-0.25,-0.46,1.05,-10.90,-3.65,79.59,33.47
18547,-0.25,-0.50,1.11,-9.79,-5.11,80.18,33.47
18557,-0.26,-0.50,1.16,-5.28,-17.36,79.94,33.47
18567,-0.23,-0.51,1.16,0.72,-36.05,76.81,33.57
18577,-0.20,-0.53,1.14,5.74,-55.18,68.93,33.47
18587,-0.22,-0.54,1.08,10.23,-74.20,58.53,33.47
18597,-0.24,-0.47,0.97,14.17,-88.14,54.15,33.47
18607,-0.23,-0.38,0.87,13.27,-89.79,55.50,33.47
18617,-0.20,-0.32,0.78,6.81,-80.35,61.22,33.57
18627,-0.13,-0.32,0.77,-0.67,-62.44,68.35,33.57
18637,-0.08,-0.36,0.83,-4.15,-45.59,72.14,33.57
18647,-0.06,-0.40,0.88,-6.58,-35.44,71.54,33.47
18657,-0.07,-0.42,0.90,-6.24,-28.75,67.62,33.57
18667,-0.13,-0.40,0.90,-3.47,-23.28,67.60,33.42
18677,-0.16,-0.36,0.87,-0.53,-15.98,71.82,33.52
18687,-0.15,-0.33,0.85,-1.68,-8.95,76.09,33.52
18697,-0.13,-0.33,0.84,-5.44,-0.55,78.32,33.52
18707,-0.12,-0.36,0.85,-8.29,6.24,78.17,33.42
18717,-0.15,-0.39,0.90,-9.02,7.02,76.02,33.52
18727,-0.18,-0.41,0.92,-9.50,3.63,73.63,33.42
18737,-0.23,-0.41,0.94,-9.56,-4.72,71.73,33.52
18747,-0.25,-0.39,0.92,-7.79,-12.87,73.05,33.52
18757,-0.26,-0.34,0.87,-6.82,-18.52,76.98,33.52
18767,-0.24,-0.33,0.83,-9.50,-23.05,81.05,33.42
18777,-0.19,-0.33,0.82,-12.50,-28.50,84.27,33.52
18787,-0.13,-0.35,0.81,-16.93,-32.67,84.12,33.61
18797,-0.11,-0.35,0.84,-22.60,-38.73,82.63,33.52
18807,-0.09,-0.36,0.88,-26.14,-48.60,79.66,33.42
18817,-0.10,-0.38,0.95,-28.41,-62.63,75.11,33.42
18827,-0.15,-0.38,1.02,-32.61,-82.23,72.23,33.52
18837,-0.08,-0.35,1.04,-32.23,-89.37,74.40,33.52
18847,-0.02,-0.30,1.03,-33.95,-73.80,87.62,33.52
18857,0.03,-0.30,1.08,-37.01,-51.18,109.89,33.52
18867,0.17,-0.42,1.18,-35.05,-9.69,126.27,33.52
18877,0.25,-0.53,1.24,-29.22,18.90,131.68,33.52
18887,0.23,-0.59,1.32,-21.60,28.26,127.13,33.42
18897,0.19,-0.64,1.38,-11.74,17.73,114.69,33.61
18907,0.15,-0.63,1.35,0.23,-14.64,98.32,33.61
18917,0.18,-0.56,1.20,10.95,-50.15,78.31,33.47
18927,0.21,-0.46,1.00,11.44,-80.87,58.03,33.61
18937,0.21,-0.36,0.84,5.45,-103.51,42.98,33.42
18947,0.20,-0.29,0.72,-0.26,-111.80,35.04,33.52
18957,0.18,-0.25,0.68,-4.37,-103.18,35.48,33.57
18967,0.16,-0.22,0.65,-7.27,-84.34,41.48,33.61
18977,0.16,-0.20,0.66,-8.60,-58.35,53.50,33.52
18987,0.16,-0.22,0.73,-11.76,-39.50,60.76,33.52
18997,0.15,-0.26,0.79,-17.76,-31.82,61.42,33.47
19007,0.11,-0.29,0.87,-22.67,-38.79,57.76,33.47
19017,0.10,-0.32,0.95,-25.11,-55.56,52.84,33.47
19027,0.13,-0.34,0.95,-24.52,-72.85,47.54,33.57
19037,0.15,-0.31,0.90,-23.62,-79.97,45.07,33.47
19047,0.23,-0.28,0.85,-20.90,-68.29,49.50,33.66
19057,0.31,-0.25,0.79,-18.66,-40.81,58.67,33.47
19067,0.35,-0.28,0.83,-19.10,-7.08,67.89,33.57
19077,0.35,-0.34,0.95,-14.38,21.19,73.82,33.57
19087,0.34,-0.41,1.04,-9.97,37.05,72.29,33.47
19097,0.31,-0.46,1.09,-8.58,36.55,61.27,33.47
19107,0.24,-0.49,1.15,-9.76,18.58,43.95,33.47
19117,0.18,-0.46,1.09,-11.15,-2.89,25.94,33.47
19127,0.09,-0.37,1.04,-10.24,-22.93,13.71,33.57
19137,0.01,-0.30,0.93,-13.50,-33.44,9.56,33.47
19147,-0.07,-0.26,0.89,-19.54,-47.19,9.77,33.47
19157,-0.11,-0.23,0.87,-27.94,-55.11,12.70,33.47
19167,-0.13,-0.24,0.91,-36.38,-61.89,17.69,33.47
19177,-0.17,-0.28,0.98,-43.28,-74.50,21.10,33.57
19187,-0.15,-0.32,1.06,-44.87,-87.48,24.95,33.47
19197,-0.10,-0.35,1.10,-42.67,-101.15,28.21,33.47
19207,-0.01,-0.39,1.14,-40.46,-112.08,28.08,33.47
19217,0.08,-0.40,1.14,-34.63,-118.85,26.55,33.47
19227,0.19,-0.38,1.06,-26.12,-104.76,32.52,33.52
19237,0.33,-0.34,0.96,-21.05,-65.85,43.71,33.52
19247,0.45,-0.36,0.97,-17.47,-21.80,54.46,33.61
19257,0.52,-0.40,1.03,-12.61,12.78,58.18,33.52
19267,0.51,-0.44,1.05,-12.21,41.91,53.57,33.52
19277,0.43,-0.47,1.16,-14.37,47.39,41.01,33.52
19287,0.29,-0.49,1.26,-12.70,30.99,25.04,33.52
19297,0.17,-0.47,1.26,-8.34,6.53,12.12,33.52
19307,0.07,-0.44,1.23,-4.87,-16.96,4.81,33.52
19317,-0.01,-0.39,1.15,-2.81,-32.85,5.65,33.61
19327,-0.02,-0.38,1.06,1.07,-40.47,12.55,33.61
19337,0.01,-0.36,1.01,3.79,-45.76,19.83,33.61
19347,0.08,-0.36,0.88,4.06,-46.23,24.98,33.42
19357,0.15,-0.32,0.80,0.79,-41.97,28.38,33.52
19367,0.19,-0.31,0.76,-3.01,-36.52,30.02,33.61
19377,0.19,-0.31,0.78,-7.85,-34.95,28.99,33.52
19387,0.20,-0.33,0.80,-8.95,-34.99,28.03,33.52
19397,0.18,-0.32,0.80,-13.44,-37.77,25.83,33.42
19407,0.13,-0.31,0.85,-18.20,-47.16,23.44,33.52
19417,0.09,-0.33,0.87,-20.29,-54.47,24.99,33.42
19427,0.08,-0.35,0.91,-18.37,-57.08,29.76,33.42
19437,0.09,-0.36,0.92,-16.41,-60.34,34.26,33.52
19447,0.13,-0.38,0.88,-15.47,-60.08,38.09,33.52
19457,0.17,-0.36,0.88,-16.55,-56.70,41.51,33.61
19467,0.20,-0.36,0.86,-18.76,-54.11,43.50,33.61
19477,0.25,-0.37,0.84,-21.22,-51.45,43.69,33.52
19487,0.29,-0.37,0.85,-23.50,-46.72,41.60,33.57
19497,0.31,-0.38,0.84,-25.53,-45.21,36.99,33.52
19507,0.32,-0.39,0.83,-28.14,-43.65,30.92,33.52
19517,0.30,-0.37,0.82,-30.24,-44.66,25.42,33.52
19527,0.26,-0.37,0.82,-34.15,-45.21,22.92,33.57
19537,0.23,-0.40,0.87,-34.20,-43.77,25.13,33.42
19547,0.22,-0.42,0.92,-30.79,-39.82,30.49,33.61
19557,0.22,-0.44,0.96,-27.28,-34.61,35.48,33.52
19567,0.24,-0.47,0.97,-24.15,-32.93,39.04,33.47
19577,0.28,-0.51,1.01,-19.89,-29.36,39.18,33.57
19587,0.31,-0.51,1.00,-17.60,-26.44,36.79,33.47
19597,0.32,-0.49,0.97,-16.78,-23.91,34.66,33.47
19607,0.32,-0.46,0.96,-15.98,-21.89,34.17,33.47
19617,0.30,-0.46,0.95,-14.99,-20.72,34.92,33.47
19627,0.32,-0.45,0.93,-14.79,-16.87,36.46,33.57
19637,0.34,-0.44,0.91,-14.81,-12.66,38.66,33.57
19647,0.39,-0.45,0.88,-16.03,-4.75,41.18,33.47
19657,0.41,-0.48,0.90,-16.05,2.85,40.87,33.47
19667,0.42,-0.52,0.91,-15.19,6.60,37.66,33.57
19677,0.39,-0.54,0.94,-16.66,1.80,27.74,33.57
19687,0.32,-0.51,0.93,-17.07,-7.83,17.88,33.57
19697,0.25,-0.50,0.94,-18.66,-15.80,13.22,33.47
19707,0.20,-0.45,0.97,-21.59,-25.74,13.88,33.47
19717,0.23,-0.43,0.96,-22.05,-28.40,19.80,33.38
19727,0.26,-0.42,0.96,-23.25,-30.64,28.14,33.57
19737,0.36,-0.46,0.96,-21.30,-24.73,36.63,33.47
19747,0.45,-0.52,1.01,-18.70,-16.82,41.98,33.47
19757,0.54,-0.57,0.97,-13.60,-3.88,43.50,33.47
19767,0.58,-0.63,1.07,-11.68,-3.51,34.87,33.57
19777,0.61,-0.66,1.05,-12.53,-5.54,21.80,33.47
19787,0.56,-0.65,1.08,-12.02,-12.73,9.74,33.38
19797,0.51,-0.62,1.06,-8.76,-22.66,1.83,33.47
19807,0.46,-0.58,1.03,-6.15,-26.35,-1.33,33.57
19817,0.46,-0.54,0.94,-4.79,-23.51,-0.18,33.47
19827,0.45,-0.52,0.90,-4.53,-14.12,3.59,33.47
19837,0.44,-0.51,0.89,-5.73,-5.42,7.50,33.47
19847,0.44,-0.50,0.88,-7.65,-0.37,9.82,33.47
19857,0.44,-0.52,0.88,-9.88,1.01,10.84,33.47
19867,0.45,-0.52,0.90,-12.44,-3.47,9.34,33.57
19877,0.46,-0.54,0.90,-13.68,-11.69,5.65,33.47
19887,0.46,-0.56,0.91,-15.07,-20.46,0.46,33.57
19897,0.47,-0.56,0.91,-17.94,-26.78,-5.07,33.47
19907,0.49,-0.54,0.85,-21.33,-28.08,-8.98,33.61
19917,0.52,-0.54,0.84,-22.32,-20.98,-11.25,33.42
19927,0.53,-0.55,0.81,-22.11,-5.97,-12.29,33.52
19937,0.51,-0.55,0.85,-19.25,9.53,-11.60,33.42
19947,0.46,-0.57,0.90,-14.50,19.76,-11.63,33.52
19957,0.41,-0.56,0.92,-12.06,19.66,-14.06,33.52
19967,0.37,-0.53,0.91,-11.48,14.76,-17.04,33.42
19977,0.33,-0.50,0.91,-11.19,8.90,-17.60,33.61
19987,0.31,-0.49,0.88,-10.67,7.48,-15.65,33.42
19997,0.30,-0.48,0.85,-10.32,9.71,-12.31,33.61
20007,0.30,-0.46,0.83,-10.81,13.27,-8.15,33.42
20017,0.30,-0.46,0.84,-12.85,16.26,-4.67,33.52
20027,0.29,-0.48,0.85,-12.99,17.22,-3.21,33.52
20037,0.29,-0.51,0.87,-12.17,15.36,-2.52,33.52
20047,0.30,-0.53,0.90,-11.05,12.98,-1.77,33.52
20057,0.32,-0.54,0.90,-9.21,11.53,-1.69,33.52
20067,0.34,-0.55,0.91,-7.39,12.67,-1.76,33.61
20077,0.33,-0.55,0.91,-4.78,14.49,-2.17,33.52
20087,0.33,-0.53,0.88,-3.18,15.79,-1.53,33.52
20097,0.35,-0.52,0.86,-3.44,17.37,-0.58,33.47
20107,0.36,-0.51,0.86,-5.19,18.00,-1.13,33.52
20117,0.37,-0.51,0.84,-6.73,17.54,-2.00,33.52
20127,0.38,-0.51,0.83,-7.73,18.40,-2.90,33.52
20137,0.38,-0.52,0.83,-7.79,20.66,-3.74,33.57
20147,0.39,-0.52,0.84,-7.48,24.90,-3.62,33.52
20157,0.40,-0.53,0.85,-7.16,28.70,-3.31,33.52
20167,0.40,-0.53,0.88,-6.70,30.72,-4.14,33.52
20177,0.40,-0.55,0.88,-5.95,31.19,-5.77,33.57
20187,0.40,-0.55,0.88,-5.27,30.79,-7.82,33.57
20197,0.39,-0.54,0.87,-4.38,29.16,-10.49,33.47
20207,0.39,-0.52,0.88,-4.78,28.35,-12.87,33.57
20217,0.37,-0.52,0.85,-5.02,27.48,-14.79,33.47
20227,0.39,-0.52,0.87,-5.65,26.12,-17.25,33.57
20237,0.39,-0.51,0.85,-5.30,26.11,-19.62,33.57
20247,0.40,-0.50,0.83,-6.15,28.09,-21.27,33.57
20257,0.41,-0.49,0.83,-7.36,29.08,-22.49,33.57
20267,0.41,-0.47,0.85,-9.21,28.99,-23.21,33.47
20277,0.43,-0.45,0.85,-11.39,27.13,-22.49,33.47
20287,0.45,-0.45,0.85,-13.04,26.93,-19.24,33.57
20297,0.51,-0.48,0.88,-14.06,28.12,-16.78,33.57
20307,0.58,-0.54,0.91,-13.60,31.88,-16.78,33.47
20317,0.63,-0.59,0.91,-10.40,36.73,-18.79,33.47
20327,0.67,-0.66,0.93,-10.43,43.01,-26.29,33.47
20337,0.68,-0.69,0.93,-9.82,47.60,-37.10,33.57
20347,0.63,-0.69,0.94,-8.24,53.50,-46.61,33.38
20357,0.56,-0.67,0.93,-5.36,60.12,-54.12,33.38
20367,0.49,-0.66,0.91,-3.25,68.40,-58.24,33.47
20377,0.41,-0.62,0.90,-0.64,77.92,-57.83,33.47
20387,0.33,-0.61,0.91,0.18,83.30,-55.21,33.47
20397,0.29,-0.61,0.93,1.19,83.33,-52.76,33.47
20407,0.26,-0.60,0.91,2.20,81.79,-50.35,33.47
20417,0.25,-0.59,0.91,1.80,77.47,-49.24,33.66
20427,0.25,-0.62,0.91,3.51,71.28,-50.84,33.57
20437,0.26,-0.63,0.87,5.10,68.38,-53.68,33.47
20447,0.24,-0.63,0.86,5.36,65.30,-57.73,33.57
20457,0.20,-0.61,0.85,5.65,61.45,-61.30,33.61
20467,0.18,-0.57,0.82,2.96,61.05,-62.98,33.61
20477,0.17,-0.53,0.79,-0.14,59.18,-61.82,33.52
20487,0.16,-0.52,0.81,-3.27,57.27,-59.77,33.42
20497,0.16,-0.54,0.82,-4.44,55.44,-56.98,33.52
20507,0.17,-0.58,0.85,-4.60,55.69,-55.11,33.42
20517,0.18,-0.59,0.87,-5.07,57.01,-54.89,33.42
20527,0.18,-0.62,0.91,-5.40,56.40,-56.66,33.42
20537,0.17,-0.63,0.93,-3.45,53.85,-58.18,33.52
20547,0.17,-0.60,0.93,-1.80,52.76,-58.55,33.52
20557,0.18,-0.57,0.92,-0.47,51.62,-57.02,33.52
20567,0.18,-0.57,0.94,1.11,50.32,-54.20,33.52
20577,0.23,-0.55,0.92,1.51,55.33,-48.90,33.42
20587,0.30,-0.55,0.94,0.44,64.26,-43.42,33.52
20597,0.34,-0.61,0.97,3.62,70.15,-39.45,33.42
20607,0.40,-0.67,1.02,6.58,81.60,-39.88,33.52
20617,0.42,-0.75,1.09,10.79,87.42,-47.02,33.52
20627,0.40,-0.79,1.15,14.99,87.04,-59.11,33.47
20637,0.35,-0.76,1.13,20.61,81.30,-70.38,33.52
20647,0.28,-0.71,1.08,23.08,75.42,-78.66,33.52
20657,0.25,-0.66,1.00,23.16,70.84,-82.41,33.52
20667,0.23,-0.62,0.94,20.53,74.84,-82.69,33.57
20677,0.21,-0.61,0.91,15.86,82.72,-82.09,33.52
20687,0.17,-0.64,0.92,11.80,87.65,-82.87,33.61
20697,0.11,-0.66,0.94,10.81,82.03,-85.28,33.42
20707,0.06,-0.65,0.94,11.68,72.34,-87.86,33.57
20717,0.06,-0.63,0.92,13.62,65.04,-87.51,33.47
20727,0.07,-0.63,0.90,14.61,57.95,-86.78,33.47
20737,0.09,-0.65,0.91,13.39,51.22,-88.60,33.47
20747,0.11,-0.65,0.89,13.89,46.50,-91.07,33.47
20757,0.14,-0.64,0.87,13.40,48.27,-92.44,33.57
20767,0.15,-0.63,0.84,12.85,52.70,-93.53,33.57
20777,0.14,-0.62,0.86,13.88,63.13,-92.96,33.47
20787,0.09,-0.61,0.88,17.30,74.27,-87.11,33.47
20797,0.07,-0.62,0.89,20.02,85.07,-80.17,33.57
20807,0.05,-0.62,0.91,22.79,91.08,-75.54,33.38
20817,0.06,-0.64,0.93,24.41,91.82,-74.20,33.47
20827,0.05,-0.66,0.96,26.93,86.41,-77.28,33.57
20837,0.05,-0.63,0.93,28.67,81.02,-81.07,33.57
20847,0.05,-0.59,0.91,27.73,79.37,-83.51,33.47
20857,0.07,-0.59,0.92,25.97,82.08,-85.08,33.57
20867,0.06,-0.64,0.96,26.92,81.89,-88.37,33.57
20877,0.03,-0.68,0.98,28.61,82.63,-92.03,33.47
20887,-0.01,-0.68,0.99,32.29,78.63,-95.89,33.47
20897,-0.05,-0.67,0.97,35.34,70.53,-97.37,33.47
20907,-0.10,-0.65,0.93,36.87,61.60,-100.09,33.47
20917,-0.10,-0.63,0.88,36.27,53.63,-101.39,33.57
20927,-0.13,-0.59,0.83,34.90,49.19,-100.95,33.47
20937,-0.13,-0.56,0.82,31.60,46.03,-99.95,33.47
20947,-0.12,-0.55,0.82,28.18,46.08,-100.02,33.57
20957,-0.13,-0.54,0.81,25.85,47.08,-100.31,33.52
20967,-0.15,-0.52,0.79,23.42,50.23,-99.08,33.42
20977,-0.17,-0.54,0.84,21.80,47.63,-99.07,33.42
20987,-0.20,-0.56,0.88,22.46,40.24,-100.64,33.42
20997,-0.23,-0.55,0.88,22.58,31.22,-102.11,33.61
21007,-0.23,-0.51,0.86,22.37,23.63,-100.93,33.52
21017,-0.20,-0.46,0.84,22.20,24.34,-96.46,33.42
21027,-0.14,-0.45,0.83,18.98,30.03,-91.01,33.42
21037,-0.11,-0.48,0.88,17.21,34.24,-90.35,33.52
21047,-0.10,-0.51,0.92,16.70,34.06,-94.31,33.52
21057,-0.11,-0.50,0.92,17.25,30.84,-98.03,33.61
21067,-0.14,-0.48,0.92,19.37,28.96,-100.29,33.52
21077,-0.13,-0.44,0.86,21.05,34.14,-97.33,33.42
21087,-0.12,-0.44,0.84,18.06,47.10,-93.36,33.52
21097,-0.12,-0.47,0.85,16.53,57.05,-89.24,33.52
21107,-0.14,-0.50,0.89,15.66,62.23,-87.21,33.52
21117,-0.16,-0.49,0.86,16.50,60.72,-86.37,33.52
21127,-0.17,-0.48,0.85,16.31,53.98,-87.05,33.42
21137,-0.16,-0.45,0.84,15.71,47.79,-89.25,33.52
21147,-0.16,-0.44,0.83,12.47,43.19,-91.40,33.42
21157,-0.17,-0.43,0.83,11.28,39.51,-92.70,33.47
21167,-0.17,-0.43,0.81,8.55,42.75,-91.37,33.52
21177,-0.20,-0.44,0.81,6.58,48.17,-89.59,33.42
21187,-0.25,-0.42,0.83,6.79,52.60,-85.07,33.42
21197,-0.29,-0.42,0.82,6.11,55.21,-79.13,33.47
21207,-0.28,-0.42,0.84,5.68,55.59,-73.36,33.52
21217,-0.28,-0.44,0.86,5.22,53.86,-70.64,33.52
21227,-0.26,-0.42,0.88,4.93,48.06,-70.78,33.52
21237,-0.24,-0.43,0.89,6.00,40.73,-73.44,33.57
21247,-0.28,-0.43,0.90,4.32,35.92,-76.96,33.52
21257,-0.33,-0.43,0.89,3.45,29.56,-78.26,33.61
21267,-0.38,-0.41,0.86,4.00,26.79,-74.15,33.52
21277,-0.40,-0.40,0.81,2.32,26.89,-67.53,33.47
21287,-0.39,-0.37,0.76,-0.05,33.28,-60.35,33.52
21297,-0.41,-0.30,0.74,-2.79,30.21,-55.07,33.57
21307,-0.40,-0.30,0.73,-7.33,31.22,-51.19,33.57
21317,-0.42,-0.30,0.78,-14.85,29.36,-48.67,33.47
21327,-0.43,-0.33,0.86,-17.79,24.84,-45.63,33.47
21337,-0.46,-0.35,0.94,-21.16,18.84,-42.76,33.47
21347,-0.48,-0.39,1.06,-21.95,6.37,-38.23,33.57
21357,-0.42,-0.42,1.09,-20.61,-3.80,-31.59,33.47
21367,-0.31,-0.45,1.10,-18.73,-6.44,-25.77,33.57
21377,-0.20,-0.46,1.10,-15.44,-5.18,-22.29,33.57
21387,-0.08,-0.46,1.08,-10.23,-0.52,-23.10,33.57
21397,-0.02,-0.42,1.01,-8.15,7.89,-27.98,33.57
21407,-0.04,-0.40,0.98,-10.38,14.60,-33.94,33.57
21417,-0.12,-0.39,1.00,-12.21,14.17,-39.10,33.47
21427,-0.21,-0.38,1.01,-13.53,10.50,-41.40,33.57
21437,-0.29,-0.36,0.99,-14.52,8.17,-39.51,33.47
21447,-0.31,-0.37,0.99,-15.22,5.25,-36.46,33.57
21457,-0.30,-0.39,1.00,-13.89,7.01,-34.05,33.47
21467,-0.29,-0.43,1.01,-14.73,12.27,-32.00,33.57
21477,-0.31,-0.48,1.06,-10.69,14.14,-32.15,33.47
21487,-0.33,-0.49,1.06,-0.63,14.00,-32.84,33.38
21497,-0.38,-0.42,0.98,0.70,15.10,-31.28,33.57
21507,-0.42,-0.36,0.95,1.76,13.40,-26.46,33.47
21517,-0.40,-0.33,0.91,1.37,12.38,-22.58,33.47
21527,-0.37,-0.31,0.88,-3.47,11.97,-20.24,33.47
21537,-0.38,-0.34,0.89,-8.15,16.34,-17.92,33.57
21547,-0.37,-0.39,0.96,-10.70,21.65,-16.11,33.57
21557,-0.41,-0.46,1.05,-9.77,22.40,-14.43,33.57
21567,-0.43,-0.47,1.10,-3.82,19.01,-12.15,33.47
21577,-0.44,-0.46,1.08,2.11,12.76,-8.79,33.47
21587,-0.42,-0.43,1.04,6.35,3.97,-6.40,33.47
21597,-0.38,-0.38,0.97,8.92,-1.27,-3.04,33.57
21607,-0.33,-0.35,0.92,8.38,-3.54,-0.29,33.57
21617,-0.28,-0.33,0.88,3.86,-0.37,1.15,33.47
21627,-0.29,-0.33,0.89,-0.47,1.50,2.26,33.57
21637,-0.27,-0.35,0.93,-3.30,2.26,3.92,33.57
21647,-0.24,-0.36,0.95,-4.06,0.60,4.93,33.47
21657,-0.19,-0.37,0.95,-3.54,1.68,4.60,33.57
21667,-0.16,-0.39,0.99,-3.91,6.47,1.25,33.61
21677,-0.12,-0.42,1.01,-5.27,9.69,-3.79,33.61
21687,-0.16,-0.40,1.06,-6.31,10.09,-7.69,33.42
21697,-0.20,-0.36,1.08,-5.69,6.49,-8.00,33.52
21707,-0.24,-0.38,1.16,-3.66,-7.25,-6.53,33.52
21717,-0.22,-0.44,1.20,3.04,-30.82,-9.74,33.52
21727,-0.18,-0.44,1.15,9.91,-52.66,-16.70,33.52
21737,-0.16,-0.39,1.05,11.50,-65.51,-22.70,33.52
21747,-0.15,-0.32,0.95,8.90,-62.50,-22.85,33.52
21757,-0.14,-0.26,0.89,4.20,-45.63,-16.44,33.61
21767,-0.12,-0.26,0.91,-3.39,-21.24,-8.17,33.52
21777,-0.12,-0.31,0.94,-6.21,-0.55,-3.31,33.52
21787,-0.13,-0.36,0.97,-4.82,15.28,-0.92,33.42
21797,-0.14,-0.37,0.98,-0.43,23.02,-0.37,33.52
21807,-0.17,-0.32,0.97,0.46,23.31,-1.07,33.52
21817,-0.20,-0.28,0.98,-2.47,15.27,-0.82,33.52
21827,-0.21,-0.30,1.02,-5.13,4.46,0.18,33.42
21837,-0.18,-0.35,1.04,-5.86,-2.08,1.04,33.52
21847,-0.16,-0.34,1.04,-5.25,-4.09,1.36,33.42
21857,-0.15,-0.33,1.03,-3.69,-0.76,3.11,33.52
21867,-0.15,-0.33,1.00,-5.48,3.13,4.26,33.42
21877,-0.15,-0.33,1.00,-6.14,5.76,5.40,33.52
21887,-0.14,-0.32,1.03,-7.65,6.44,5.53,33.52
21897,-0.13,-0.33,1.03,-6.96,4.96,6.11,33.52
21907,-0.12,-0.35,1.02,-6.00,3.16,6.35,33.42
21917,-0.10,-0.34,1.01,-3.89,1.34,6.56,33.52
21927,-0.10,-0.34,1.00,-2.44,-1.22,6.27,33.57
21937,-0.08,-0.35,1.00,-1.74,-5.27,5.39,33.52
21947,-0.09,-0.35,0.99,-1.91,-9.50,3.54,33.52
21957,-0.08,-0.35,0.96,-1.71,-12.73,1.62,33.52
21967,-0.08,-0.34,0.95,-2.66,-13.56,1.71,33.47
21977,-0.08,-0.35,0.95,-4.35,-10.14,1.51,33.52
21987,-0.07,-0.36,0.96,-3.22,-5.86,2.02,33.52
21997,-0.08,-0.35,0.94,-2.06,-1.22,2.67,33.42
22007,-0.08,-0.35,0.94,-1.42,3.60,2.32,33.57
22017,-0.08,-0.35,0.96,-2.02,5.71,0.72,33.52
22027,-0.10,-0.36,0.95,-3.18,5.76,-1.10,33.52
22037,-0.12,-0.34,0.95,-3.85,5.31,-1.82,33.52
22047,-0.14,-0.34,0.96,-5.39,3.89,-1.56,33.57
22057,-0.14,-0.33,0.97,-4.93,1.69,-0.67,33.47
22067,-0.14,-0.33,0.97,-6.69,-0.08,-0.27,33.47
22077,-0.16,-0.34,1.01,-7.59,-3.51,-0.35,33.57
22087,-0.15,-0.35,1.01,-7.54,-6.89,-0.47,33.57
22097,-0.13,-0.36,1.00,-7.25,-5.62,0.82,33.57
22107,-0.12,-0.38,1.01,-6.15,-2.02,1.51,33.57
22117,-0.12,-0.38,1.02,-4.53,1.73,2.08,33.57
22127,-0.13,-0.36,1.01,-4.49,5.82,3.07,33.47
22137,-0.14,-0.36,1.00,-4.12,6.63,4.18,33.47
22147,-0.16,-0.35,1.01,-4.90,4.41,4.70,33.47
22157,-0.15,-0.34,1.00,-5.54,1.91,4.89,33.47
22167,-0.14,-0.33,0.98,-7.68,0.00,5.40,33.57
22177,-0.13,-0.33,0.99,-9.18,-0.81,6.46,33.57
22187,-0.13,-0.35,1.02,-10.61,-0.72,7.92,33.57
22197,-0.13,-0.37,1.02,-10.40,-2.02,9.10,33.47
22207,-0.11,-0.38,1.03,-10.31,-2.43,9.79,33.47
22217,-0.11,-0.37,1.04,-10.18,-4.09,9.95,33.47
22227,-0.09,-0.38,1.04,-8.99,-3.86,10.14,33.57
22237,-0.07,-0.39,1.05,-8.29,-2.64,10.18,33.47
22247,-0.05,-0.38,1.05,-7.34,-0.50,10.49,33.47
22257,-0.04,-0.38,1.06,-6.63,-0.64,10.24,33.47
22267,-0.03,-0.38,1.06,-6.24,-3.33,8.67,33.57
22277,-0.01,-0.39,1.06,-6.82,-6.92,5.97,33.47
22287,-0.00,-0.40,1.07,-5.82,-11.54,3.45,33.47
22297,0.01,-0.41,1.09,-3.95,-15.88,1.15,33.57
22307,0.02,-0.41,1.07,-1.57,-15.71,0.46,33.57
22317,0.05,-0.41,1.06,1.59,-12.05,0.38,33.57
22327,0.08,-0.42,1.03,6.98,-7.68,0.14,33.47
22337,0.06,-0.40,1.01,5.33,1.22,-0.44,33.47
22347,0.08,-0.37,0.99,5.79,7.71,-2.12,33.47
22357,0.08,-0.36,0.96,4.14,15.16,-4.27,33.66
22367,0.05,-0.34,0.94,2.27,20.75,-6.08,33.47
22377,0.01,-0.35,0.94,0.58,25.11,-6.79,33.42
22387,-0.03,-0.36,0.96,-1.42,24.60,-7.21,33.61
22397,-0.06,-0.36,1.00,-2.40,17.69,-7.22,33.52
22407,-0.06,-0.39,1.06,-2.02,6.69,-9.16,33.42
22417,-0.06,-0.40,1.09,-0.72,-4.87,-12.87,33.52
22427,-0.05,-0.40,1.08,1.48,-12.76,-16.17,33.52
22437,-0.06,-0.39,1.07,3.86,-13.25,-16.78,33.61
22447,-0.08,-0.38,1.06,6.21,-10.61,-15.25,33.52
22457,-0.09,-0.38,1.05,8.52,-6.41,-13.48,33.52
22467,-0.09,-0.37,1.03,9.97,-2.70,-11.95,33.52
22477,-0.09,-0.35,1.00,10.41,0.37,-10.29,33.52
22487,-0.12,-0.33,0.96,10.03,0.44,-9.34,33.52
22497,-0.12,-0.31,0.92,7.62,0.17,-8.53,33.61
22507,-0.13,-0.29,0.91,3.51,-1.34,-8.40,33.52
22517,-0.12,-0.28,0.90,-0.37,-1.69,-7.44,33.52
22527,-0.11,-0.30,0.90,-4.98,-0.47,-6.93,33.52
22537,-0.11,-0.31,0.91,-7.74,1.83,-5.85,33.52
22547,-0.11,-0.33,0.95,-8.78,4.60,-5.27,33.61
22557,-0.12,-0.34,0.98,-8.46,7.59,-3.57,33.52
22567,-0.12,-0.35,1.00,-7.86,10.44,-1.91,33.52
22577,-0.14,-0.36,1.00,-7.24,11.85,-0.58,33.61
22587,-0.14,-0.37,1.01,-5.13,12.35,0.96,33.52
22597,-0.14,-0.37,1.01,-3.66,11.98,1.48,33.52
22607,-0.14,-0.37,1.01,-3.63,10.46,1.18,33.61
22617,-0.14,-0.36,1.00,-3.42,9.48,1.08,33.52
22627,-0.14,-0.35,0.99,-3.86,9.68,0.90,33.52
22637,-0.15,-0.35,0.99,-3.59,10.55,0.85,33.52
22647,-0.16,-0.34,0.97,-3.63,12.24,1.28,33.42
22657,-0.16,-0.32,0.96,-4.34,16.26,3.04,33.52
22667,-0.18,-0.32,0.94,-6.34,19.77,5.02,33.52
22677,-0.19,-0.33,0.95,-8.15,24.56,7.15,33.52
22687,-0.22,-0.34,0.97,-9.80,25.89,9.01,33.52
22697,-0.27,-0.35,1.01,-10.49,21.91,11.16,33.57
22707,-0.28,-0.35,1.02,-11.30,12.27,13.45,33.42
22717,-0.27,-0.36,1.04,-10.46,0.20,14.78,33.52
22727,-0.23,-0.36,1.06,-9.36,-13.79,15.83,33.33
22737,-0.14,-0.38,1.03,-9.39,-18.67,14.90,33.57
22747,-0.07,-0.39,1.00,-9.62,-16.43,15.16,33.42
22757,-0.05,-0.38,1.00,-9.40,-11.45,13.83,33.61
22767,-0.03,-0.37,1.03,-10.26,-2.50,13.42,33.52
22777,-0.06,-0.39,1.05,-10.73,0.53,11.62,33.57
22787,-0.08,-0.40,1.08,-9.13,1.18,10.92,33.52
22797,-0.11,-0.40,1.09,-5.63,-1.97,10.58,33.52
22807,-0.08,-0.39,1.05,-2.47,-3.73,10.21,33.61
22817,-0.05,-0.35,1.01,-1.94,-4.52,9.01,33.47
22827,-0.03,-0.35,0.98,-3.56,-3.33,7.01,33.52
22837,-0.04,-0.35,1.00,-5.36,-0.66,5.88,33.52
22847,-0.06,-0.35,1.00,-6.17,1.02,5.63,33.52
22857,-0.07,-0.37,1.03,-5.37,1.25,5.10,33.57
22867,-0.08,-0.38,1.04,-4.79,0.41,3.77,33.57
22877,-0.10,-0.36,1.04,-3.86,1.01,3.94,33.57
22887,-0.08,-0.36,1.03,-2.75,3.44,4.69,33.57
22897,-0.08,-0.37,1.04,-1.45,5.13,4.61,33.47
22907,-0.09,-0.37,1.03,-1.11,6.37,4.29,33.47
22917,-0.10,-0.36,1.02,-0.06,7.42,4.31,33.47
22927,-0.11,-0.35,1.01,0.73,6.31,4.40,33.57
22937,-0.12,-0.35,1.00,0.61,4.55,4.34,33.57
22947,-0.12,-0.33,0.98,-0.06,4.49,5.19,33.57
22957,-0.12,-0.33,0.96,-1.28,4.61,6.14,33.47
