Millis,Acce_X,Acce_Y,Acce_Z,Gyro_X,Gyro_Y,Gyro_Z,Temp
22167,0.06,-0.38,0.97,-5.02,-3.75,-0.75,31.07
22177,0.10,-0.39,0.96,-6.47,-3.87,0.34,30.88
22187,0.15,-0.39,0.94,-7.91,-0.84,0.34,30.88
22197,0.17,-0.41,0.94,-9.80,1.57,-1.10,31.02
22207,0.17,-0.41,0.97,-11.72,2.89,-3.26,30.98
22217,0.15,-0.41,0.97,-11.62,3.76,-3.56,31.02
22227,0.12,-0.42,0.99,-10.15,4.03,-3.22,30.93
22237,0.11,-0.43,1.01,-8.76,3.17,-3.27,31.02
22247,0.11,-0.43,1.01,-8.27,0.91,-3.61,30.93
22257,0.11,-0.42,1.01,-7.76,-1.93,-4.05,31.02
22267,0.13,-0.42,0.99,-7.92,-2.50,-4.62,31.02
22277,0.16,-0.42,0.97,-9.59,-1.87,-6.12,30.88
22287,0.16,-0.41,0.98,-12.23,-1.77,-8.16,30.98
22297,0.14,-0.43,0.99,-15.91,-3.00,-10.83,30.98
22307,0.13,-0.42,0.97,-20.04,-3.28,-14.43,30.98
22317,0.06,-0.44,1.08,-18.97,-18.76,-17.17,30.98
22327,0.00,-0.45,1.09,-16.50,-25.35,-15.33,31.12
22337,-0.02,-0.45,1.10,-12.89,-33.52,-11.88,31.02
22347,0.01,-0.46,1.07,-6.94,-32.76,-7.56,30.93
22357,0.03,-0.46,1.05,-2.07,-32.68,-4.69,31.02
22367,0.08,-0.45,1.02,0.33,-28.71,-2.66,31.02
22377,0.10,-0.45,1.02,-0.04,-25.03,-2.58,30.93
22387,0.07,-0.45,1.05,-0.35,-27.01,-3.96,31.07
22397,0.04,-0.45,1.08,-0.84,-31.32,-4.56,30.98
22407,-0.02,-0.46,1.12,2.10,-38.56,-5.33,31.07
22417,-0.05,-0.47,1.14,5.64,-45.87,-4.21,30.93
22427,-0.06,-0.47,1.12,8.82,-50.18,-1.24,30.98
22437,-0.04,-0.47,1.09,11.04,-50.25,2.12,31.02
22447,-0.04,-0.47,1.06,12.30,-45.38,7.56,31.02
22457,-0.04,-0.47,1.05,15.27,-36.56,14.89,31.02
22467,-0.05,-0.46,1.03,18.80,-25.31,21.88,30.93
22477,-0.09,-0.47,1.04,19.05,-22.91,25.27,31.02
22487,-0.14,-0.44,1.03,16.39,-29.66,26.26,30.98
22497,-0.14,-0.43,1.00,13.44,-38.08,29.01,30.98
22507,-0.10,-0.42,0.97,11.27,-39.85,33.05,30.98
22517,-0.08,-0.42,0.97,9.20,-39.50,37.72,30.98
22527,-0.06,-0.42,0.97,6.29,-36.04,43.69,30.98
22537,-0.04,-0.44,0.98,5.66,-30.48,50.45,30.98
22547,-0.04,-0.46,1.01,6.67,-25.32,57.49,31.02
22557,-0.03,-0.48,1.04,8.40,-21.25,64.00,31.02
22567,-0.04,-0.51,1.06,12.13,-21.77,68.99,31.02
22577,-0.04,-0.53,1.08,17.31,-23.38,74.50,31.02
22587,-0.01,-0.53,1.09,21.77,-30.69,76.12,31.02
22597,0.01,-0.53,1.08,22.80,-40.34,75.63,30.98
22607,0.02,-0.51,1.04,23.73,-46.15,77.13,30.88
22617,0.05,-0.50,1.01,26.45,-45.63,81.21,30.98
22627,0.06,-0.50,1.00,29.02,-46.95,83.50,31.07
22637,0.08,-0.51,0.96,29.61,-47.50,84.28,31.02
22647,0.08,-0.49,0.95,29.14,-49.37,85.43,31.02
22657,0.09,-0.47,0.94,31.57,-49.02,88.74,31.02
22667,0.09,-0.44,0.83,34.13,-45.99,93.96,31.12
22677,0.09,-0.48,0.96,30.95,-40.88,99.44,31.02
22687,0.12,-0.47,0.96,30.00,-45.77,100.43,31.02
22697,0.14,-0.49,0.98,29.22,-50.97,98.74,31.02
22707,0.15,-0.52,0.98,30.45,-57.08,96.43,30.98
22717,0.18,-0.54,1.00,31.14,-54.85,96.76,30.98
22727,0.19,-0.54,1.02,33.01,-56.48,96.86,31.07
22737,0.20,-0.54,1.01,35.93,-51.78,96.31,30.98
22747,0.21,-0.53,1.01,38.92,-48.93,95.85,31.07
22757,0.19,-0.53,1.03,40.83,-53.23,93.53,31.02
22767,0.17,-0.50,0.97,42.18,-51.82,94.08,31.02
22777,0.16,-0.48,0.96,41.56,-52.66,94.25,31.02
22787,0.19,-0.45,0.91,40.31,-52.64,92.18,30.93
22797,0.19,-0.43,0.89,37.48,-51.37,90.82,30.93
22807,0.16,-0.45,0.88,35.94,-49.62,92.27,30.98
22817,0.17,-0.45,0.89,36.97,-46.53,95.06,31.07
22827,0.17,-0.45,0.89,36.50,-46.76,96.19,30.98
22837,0.19,-0.37,0.94,27.06,-49.54,93.05,30.98
22847,0.13,-0.54,0.92,31.17,-63.22,87.73,30.98
22857,0.06,-0.47,0.92,30.35,-78.30,88.24,31.02
22867,0.16,-0.42,0.82,30.25,-68.45,96.48,31.02
22877,0.17,-0.41,0.85,26.28,-64.22,105.21,31.02
22887,0.24,-0.48,0.89,26.50,-61.36,110.08,31.02
22897,0.30,-0.56,0.94,29.60,-65.71,108.58,31.02
22907,0.36,-0.58,0.93,29.38,-73.85,102.10,31.02
22917,0.39,-0.61,0.94,31.00,-85.80,92.40,31.07
22927,0.43,-0.60,0.87,34.95,-82.15,86.27,30.98
22937,0.42,-0.56,0.84,41.00,-74.71,85.34,30.98
22947,0.43,-0.55,0.76,46.88,-62.71,86.68,31.02
22957,0.43,-0.49,0.77,46.85,-46.41,86.51,30.98
22967,0.43,-0.44,0.76,40.97,-35.45,86.91,30.93
22977,0.41,-0.43,0.78,34.89,-31.24,87.47,31.02
22987,0.38,-0.45,0.85,30.78,-31.89,88.24,31.02
22997,0.34,-0.49,0.91,31.00,-37.63,88.50,31.02
23007,0.29,-0.53,0.97,34.73,-44.06,87.01,31.02
23017,0.26,-0.55,0.99,40.37,-52.24,85.57,31.02
23027,0.27,-0.50,0.92,47.34,-52.05,88.37,30.88
23037,0.29,-0.45,0.85,52.18,-48.59,94.27,30.98
23047,0.33,-0.45,0.78,52.45,-41.44,100.84,30.98
23057,0.38,-0.44,0.81,46.53,-29.11,106.19,30.98
23067,0.42,-0.46,0.86,43.25,-30.56,105.32,30.88
23077,0.44,-0.49,0.90,40.44,-33.83,98.90,31.02
23087,0.47,-0.51,0.86,35.35,-40.86,89.20,30.93
23097,0.48,-0.50,0.86,31.98,-50.07,78.66,31.02
23107,0.49,-0.48,0.83,31.02,-45.69,74.33,31.02
23117,0.49,-0.46,0.77,35.83,-28.19,78.53,30.93
23127,0.51,-0.48,0.75,46.40,0.90,87.90,30.93
23137,0.53,-0.50,0.79,53.03,28.76,93.10,30.93
23147,0.48,-0.51,0.85,52.73,39.14,89.79,30.98
23157,0.40,-0.49,0.89,48.76,28.22,79.09,31.07
23167,0.31,-0.43,0.88,42.07,5.97,69.25,30.98
23177,0.25,-0.36,0.86,34.65,-15.42,62.54,31.07
23187,0.22,-0.32,0.83,28.40,-26.02,63.48,31.07
23197,0.22,-0.29,0.79,25.06,-24.72,70.45,30.98
23207,0.21,-0.31,0.78,21.62,-20.56,78.79,31.02
23217,0.23,-0.35,0.79,18.82,-14.08,87.49,31.02
23227,0.26,-0.38,0.80,20.99,-4.14,96.69,31.02
23237,0.33,-0.39,0.83,23.46,7.10,102.60,30.93
23247,0.36,-0.41,0.87,21.90,9.98,103.44,30.93
23257,0.37,-0.43,0.90,17.61,4.99,98.66,31.02
23267,0.33,-0.45,0.93,13.08,-10.89,91.43,31.02
23277,0.31,-0.48,0.96,10.72,-29.38,84.70,30.98
23287,0.27,-0.47,0.95,8.82,-47.95,79.02,30.98
23297,0.25,-0.45,0.90,7.69,-59.49,77.40,31.07
23307,0.23,-0.42,0.87,11.26,-63.37,80.44,30.98
23317,0.23,-0.39,0.81,17.61,-56.79,88.12,30.98
23327,0.26,-0.32,0.73,20.30,-44.51,96.97,30.98
23337,0.28,-0.31,0.69,16.85,-31.24,103.75,31.02
23347,0.33,-0.32,0.70,10.59,-20.79,107.90,31.02
23357,0.34,-0.34,0.74,2.83,-18.92,109.79,31.02
23367,0.36,-0.38,0.81,-7.03,-27.53,107.73,31.02
23377,0.37,-0.43,0.84,-11.99,-51.15,100.75,30.93
23387,0.34,-0.49,0.92,-20.50,-73.79,95.11,30.93
23397,0.39,-0.53,0.95,-23.11,-87.91,88.41,31.07
23407,0.45,-0.55,0.96,-20.48,-93.27,83.18,30.98
23417,0.49,-0.52,0.91,-14.68,-85.99,83.17,30.98
23427,0.54,-0.52,0.87,-6.82,-62.37,88.31,30.98
23437,0.57,-0.55,0.89,1.85,-39.63,90.32,30.98
23447,0.58,-0.53,0.89,9.19,-16.74,88.37,30.98
23457,0.53,-0.49,0.90,12.27,-5.44,84.77,31.02
23467,0.49,-0.49,0.93,13.30,-5.39,80.88,30.93
23477,0.45,-0.47,0.93,11.89,-7.78,78.72,30.93
23487,0.43,-0.48,0.92,11.12,-12.48,75.99,31.02
23497,0.38,-0.50,0.93,6.63,-26.22,73.43,31.02
23507,0.40,-0.49,0.92,2.73,-29.57,70.63,30.93
23517,0.42,-0.52,0.91,3.73,-29.27,69.80,31.07
23527,0.42,-0.48,0.88,2.07,-29.40,70.37,30.98
23537,0.41,-0.51,0.89,3.34,-22.89,73.63,30.98
23547,0.39,-0.54,0.91,8.12,-17.63,76.31,31.07
23557,0.39,-0.52,0.90,10.58,-16.14,75.97,31.02
23567,0.37,-0.51,0.92,8.32,-25.00,74.11,30.98
23577,0.35,-0.52,0.90,4.27,-34.64,71.71,31.02
23587,0.34,-0.52,0.90,-0.59,-49.12,68.13,30.93
23597,0.35,-0.50,0.88,-2.27,-55.81,68.09,31.02
23607,0.40,-0.47,0.81,3.53,-45.84,73.37,30.93
23617,0.45,-0.47,0.78,8.26,-27.60,82.32,30.93
23627,0.48,-0.51,0.83,9.48,-13.76,86.24,30.93
23637,0.48,-0.59,0.87,13.18,-11.62,83.51,30.98
23647,0.47,-0.57,0.87,10.03,-12.45,78.95,31.07
23657,0.46,-0.58,0.89,8.46,-18.20,72.18,31.07
23667,0.44,-0.57,0.88,7.86,-20.44,69.97,30.98
23677,0.40,-0.58,0.88,9.22,-19.91,71.34,30.98
23687,0.40,-0.60,0.90,17.70,-20.18,74.83,31.02
23697,0.41,-0.59,0.87,28.89,-17.47,77.47,31.02
23707,0.45,-0.58,0.84,37.99,-15.73,77.02,31.02
23717,0.52,-0.56,0.81,43.95,-7.53,75.02,30.93
23727,0.58,-0.54,0.77,46.43,3.05,73.18,30.93
23737,0.61,-0.56,0.78,45.53,10.58,68.71,31.02
23747,0.58,-0.59,0.82,39.96,10.78,59.30,30.93
23757,0.54,-0.60,0.84,26.83,9.12,49.60,30.98
23767,0.47,-0.62,0.90,15.46,3.33,40.98,30.98
23777,0.43,-0.58,0.91,8.30,-1.69,34.24,30.98
23787,0.38,-0.54,0.89,5.82,-4.51,33.50,31.07
23797,0.35,-0.49,0.84,6.02,-2.27,35.22,30.98
23807,0.33,-0.48,0.85,5.85,2.79,37.15,30.98
23817,0.28,-0.45,0.85,3.08,5.90,38.53,31.02
23827,0.21,-0.42,0.90,-0.73,4.41,42.01,31.02
23837,0.17,-0.37,0.92,-4.18,-3.53,45.75,31.02
23847,0.15,-0.37,0.92,-9.18,-11.13,51.05,31.02
23857,0.14,-0.37,0.93,-13.49,-20.40,55.33,31.02
23867,0.16,-0.36,0.93,-17.64,-25.12,60.44,31.02
23877,0.16,-0.39,0.96,-21.49,-30.09,65.97,31.07
23887,0.19,-0.43,0.99,-24.27,-35.92,68.37,30.98
23897,0.22,-0.50,1.05,-25.11,-45.10,67.55,31.07
23907,0.27,-0.53,1.05,-19.72,-50.83,65.31,31.07
23917,0.33,-0.57,1.04,-9.73,-47.85,64.24,30.98
23927,0.39,-0.58,0.99,-0.06,-37.79,63.30,31.07
23937,0.42,-0.56,0.95,3.43,-23.50,59.92,31.07
23947,0.41,-0.54,0.97,1.83,-15.08,55.44,31.12
23957,0.41,-0.57,0.94,3.58,-10.57,49.28,31.02
23967,0.35,-0.52,0.93,-0.52,-13.01,45.44,31.02
23977,0.31,-0.52,0.93,-5.49,-18.38,42.25,31.02
23987,0.29,-0.54,0.92,-8.45,-22.90,39.31,30.93
23997,0.26,-0.54,0.91,-8.06,-28.42,37.73,31.02
24007,0.29,-0.52,0.86,-4.82,-27.10,39.11,31.07
24017,0.33,-0.52,0.81,-3.15,-18.62,41.81,30.98
24027,0.36,-0.55,0.83,-4.86,-11.10,41.50,31.07
24037,0.35,-0.59,0.86,-6.97,-10.34,39.04,31.07
24047,0.34,-0.60,0.88,-7.37,-14.97,34.48,31.07
24057,0.32,-0.59,0.87,-6.21,-20.37,31.30,31.07
24067,0.35,-0.58,0.83,-5.53,-22.02,29.86,30.93
24077,0.37,-0.58,0.79,-5.18,-18.41,29.21,31.02
24087,0.38,-0.60,0.78,-5.98,-13.75,28.56,31.02
24097,0.38,-0.60,0.79,-5.63,-9.50,26.90,31.02
24107,0.37,-0.61,0.80,-5.34,-5.51,24.92,30.93
24117,0.37,-0.61,0.79,-5.71,-4.31,22.51,31.02
24127,0.39,-0.61,0.79,-5.61,-4.21,20.01,31.12
24137,0.37,-0.60,0.79,-7.22,-3.82,17.78,30.98
24147,0.36,-0.59,0.78,-9.86,-5.10,16.69,31.07
24157,0.35,-0.62,0.80,-13.14,-6.95,15.93,30.98
24167,0.36,-0.63,0.81,-12.87,-6.60,14.76,31.17
24177,0.35,-0.63,0.79,-10.25,-4.16,14.49,31.07
24187,0.37,-0.61,0.79,-8.41,-1.24,14.97,31.07
24197,0.39,-0.60,0.78,-9.66,-0.19,14.56,31.07
24207,0.40,-0.61,0.80,-12.82,-1.88,12.74,31.02
24217,0.42,-0.64,0.81,-15.19,-3.25,10.02,31.02
24227,0.43,-0.65,0.80,-15.97,-2.60,6.80,30.93
24237,0.46,-0.66,0.79,-15.66,-0.28,3.56,31.02
24247,0.47,-0.68,0.80,-15.46,2.24,0.27,31.02
24257,0.48,-0.69,0.81,-13.64,4.98,-2.71,31.02
24267,0.50,-0.71,0.82,-11.47,8.79,-6.40,31.02
24277,0.51,-0.73,0.83,-8.85,13.85,-10.54,31.07
24287,0.51,-0.73,0.84,-5.77,19.02,-14.92,31.07
24297,0.50,-0.71,0.86,-4.40,21.47,-19.85,30.98
24307,0.49,-0.70,0.85,-5.73,19.06,-25.98,30.98
24317,0.48,-0.70,0.82,-7.49,15.44,-31.79,30.98
24327,0.50,-0.67,0.77,-9.89,16.12,-34.76,31.07
24337,0.54,-0.68,0.73,-12.11,20.99,-36.76,31.02
24347,0.58,-0.71,0.73,-14.05,28.18,-39.42,31.12
24357,0.61,-0.73,0.71,-15.11,35.94,-45.25,31.02
24367,0.64,-0.74,0.70,-17.29,43.83,-53.85,31.12
24377,0.65,-0.76,0.70,-22.32,46.82,-63.64,31.12
24387,0.59,-0.78,0.74,-27.73,52.64,-70.69,31.02
24397,0.56,-0.79,0.79,-25.56,56.08,-73.66,30.98
24407,0.50,-0.80,0.82,-20.80,63.34,-74.36,31.17
24417,0.46,-0.78,0.86,-15.12,68.97,-73.31,31.07
24427,0.43,-0.76,0.85,-11.47,69.24,-72.68,31.07
24437,0.42,-0.70,0.79,-10.21,66.26,-72.32,30.98
24447,0.46,-0.64,0.71,-13.92,64.73,-73.02,30.98
24457,0.51,-0.64,0.62,-22.82,64.94,-73.08,31.12
24467,0.53,-0.64,0.55,-35.52,69.29,-72.42,31.12
24477,0.52,-0.66,0.55,-49.92,75.28,-71.81,31.02
24487,0.51,-0.69,0.63,-62.08,83.21,-70.98,31.12
24497,0.42,-0.81,0.79,-58.33,85.93,-71.26,31.02
24507,0.30,-0.87,0.91,-42.12,81.11,-72.44,31.02
24517,0.25,-0.85,0.96,-19.20,74.66,-72.77,31.12
24527,0.26,-0.83,0.93,-2.01,72.50,-71.02,31.07
24537,0.31,-0.78,0.87,7.19,69.86,-71.27,31.07
24547,0.39,-0.76,0.79,12.01,65.70,-75.40,31.17
24557,0.52,-0.74,0.65,10.95,69.03,-84.83,30.98
24567,0.56,-0.76,0.63,2.30,73.66,-96.50,31.17
24577,0.51,-0.79,0.69,-8.34,85.01,-100.43,30.98
24587,0.41,-0.80,0.78,-9.09,87.58,-102.46,31.07
24597,0.33,-0.84,0.86,-3.76,96.30,-103.53,31.02
24607,0.24,-0.84,0.89,4.95,95.24,-105.69,31.02
24617,0.21,-0.81,0.87,14.79,92.73,-108.63,31.02
24627,0.18,-0.76,0.83,20.64,85.60,-110.48,31.12
24637,0.19,-0.70,0.76,20.44,83.52,-111.07,31.02
24647,0.23,-0.65,0.72,15.31,81.31,-113.12,31.02
24657,0.23,-0.66,0.71,7.38,80.21,-116.18,31.07
24667,0.22,-0.67,0.71,4.69,80.64,-117.47,31.07
24677,0.22,-0.68,0.75,5.10,83.01,-119.27,31.07
24687,0.21,-0.69,0.80,3.88,82.50,-122.47,31.07
24697,0.16,-0.70,0.83,3.15,79.35,-125.17,30.98
24707,0.11,-0.70,0.88,2.74,73.56,-126.45,30.98
24717,0.11,-0.65,0.87,3.87,70.37,-127.11,30.93
24727,0.10,-0.62,0.88,3.27,62.31,-127.82,31.12
24737,0.11,-0.56,0.87,-1.11,57.34,-129.31,31.02
24747,0.15,-0.52,0.84,-2.98,54.93,-131.14,31.02
24757,0.13,-0.54,0.79,-2.65,50.39,-130.17,31.12
24767,0.14,-0.63,0.72,-2.39,59.57,-125.43,31.02
24777,0.13,-0.65,0.73,-2.82,72.88,-121.92,31.02
24787,0.10,-0.69,0.74,-1.70,88.39,-120.74,30.98
24797,-0.00,-0.60,0.76,-3.25,95.70,-123.63,31.07
24807,-0.01,-0.65,0.77,2.08,102.50,-126.66,30.98
24817,-0.07,-0.61,0.86,6.54,95.16,-126.31,31.12
24827,-0.09,-0.54,0.88,6.39,90.35,-124.55,30.98
24837,-0.10,-0.50,0.89,1.24,76.50,-122.79,31.12
24847,-0.04,-0.52,0.89,-2.11,64.60,-119.73,31.02
24857,0.07,-0.54,0.86,-6.88,60.66,-119.43,31.02
24867,0.19,-0.59,0.86,-14.18,66.55,-122.85,31.02
24877,0.24,-0.63,0.91,-16.76,78.24,-124.44,31.02
24887,0.23,-0.71,0.97,-11.13,93.05,-124.71,31.02
24897,0.19,-0.78,1.05,-1.10,100.26,-129.66,31.07
24907,0.16,-0.79,1.04,9.37,101.72,-135.94,31.07
24917,0.17,-0.76,0.97,16.71,99.50,-143.63,31.07
24927,0.16,-0.72,0.88,16.95,91.08,-150.09,31.07
24937,0.13,-0.69,0.84,13.66,84.77,-154.94,31.07
24947,0.10,-0.65,0.84,7.40,84.14,-157.62,31.12
24957,0.04,-0.65,0.84,4.25,81.88,-155.20,31.02
24967,-0.03,-0.63,0.89,4.25,76.24,-149.09,31.12
24977,-0.07,-0.63,0.92,8.79,68.37,-142.36,31.02
24987,-0.09,-0.63,0.93,11.80,57.27,-137.51,31.12
24997,-0.08,-0.65,0.90,12.30,40.75,-136.02,31.12
25007,-0.06,-0.64,0.87,10.13,27.01,-135.26,31.07
25017,-0.01,-0.60,0.81,6.52,19.54,-135.19,31.07
25027,0.05,-0.54,0.73,0.87,24.38,-133.99,31.17
25037,0.08,-0.50,0.74,-3.47,35.10,-130.38,31.02
25047,0.08,-0.51,0.77,-6.03,50.21,-127.10,31.17
25057,0.06,-0.55,0.82,-8.55,59.91,-126.29,31.02
25067,0.01,-0.61,0.90,-8.00,58.66,-127.29,31.02
25077,-0.01,-0.64,0.92,-4.63,54.92,-131.18,31.02
25087,-0.03,-0.66,0.93,-5.14,45.55,-135.95,31.02
25097,-0.08,-0.65,0.91,-5.69,35.09,-137.72,31.12
25107,-0.09,-0.59,0.87,-4.22,30.02,-133.82,31.02
25117,-0.09,-0.52,0.82,-3.60,29.05,-127.96,31.07
25127,-0.06,-0.47,0.82,-9.14,25.29,-124.00,31.07
25137,-0.01,-0.43,0.81,-15.94,25.85,-121.14,31.07
25147,-0.03,-0.43,0.81,-20.67,34.76,-115.66,31.07
25157,-0.06,-0.48,0.88,-22.13,43.25,-109.16,30.98
25167,-0.12,-0.52,0.95,-23.31,48.18,-104.63,31.02
25177,-0.20,-0.53,1.01,-23.49,43.64,-102.92,31.12
25187,-0.28,-0.51,1.03,-20.69,29.31,-99.98,31.02
25197,-0.33,-0.45,1.02,-18.41,14.09,-94.66,31.02
25207,-0.31,-0.39,0.96,-19.95,1.56,-85.79,31.12
25217,-0.23,-0.34,0.89,-25.83,-5.73,-76.62,31.02
25227,-0.10,-0.32,0.84,-34.29,-4.10,-69.30,31.02
25237,0.02,-0.33,0.83,-42.82,8.05,-64.28,30.98
25247,0.07,-0.39,0.92,-50.27,21.46,-63.63,31.07
25257,0.04,-0.47,1.05,-55.46,30.57,-64.24,31.07
25267,-0.03,-0.55,1.19,-54.45,29.64,-64.60,31.07
25277,-0.08,-0.60,1.31,-40.16,16.09,-65.11,31.07
25287,-0.05,-0.64,1.28,-29.00,7.62,-63.39,31.17
25297,0.02,-0.61,1.25,-22.09,-8.18,-61.44,31.12
25307,0.17,-0.53,1.11,-18.68,-2.76,-61.14,31.12
25317,0.28,-0.51,1.05,-17.50,11.37,-66.28,31.02
25327,0.31,-0.52,1.00,-15.76,32.56,-71.15,31.12
25337,0.21,-0.50,1.03,-18.69,53.18,-74.72,31.21
25347,0.09,-0.54,1.13,-16.18,63.23,-77.60,30.98
25357,-0.07,-0.56,1.20,-10.71,61.08,-76.54,31.07
25367,-0.17,-0.56,1.23,-4.18,46.15,-73.11,31.07
25377,-0.19,-0.53,1.17,2.34,26.24,-67.86,31.07
25387,-0.05,-0.48,1.05,7.94,14.26,-64.16,31.12
25397,0.08,-0.40,0.89,5.73,18.37,-63.63,31.07
25407,0.16,-0.36,0.79,-0.47,34.00,-64.82,31.12
25417,0.16,-0.37,0.80,-6.64,58.65,-66.73,31.02
25427,0.07,-0.43,0.87,-9.52,73.73,-70.25,31.12
25437,-0.05,-0.45,0.94,-10.66,79.09,-73.55,30.93
25447,-0.17,-0.45,1.00,-7.94,70.40,-74.07,31.02
25457,-0.22,-0.45,1.03,-4.39,54.60,-73.90,31.02
25467,-0.26,-0.43,0.99,-4.25,39.35,-69.89,31.07
25477,-0.27,-0.38,0.96,-3.27,31.38,-59.89,30.98
25487,-0.21,-0.34,0.91,1.37,33.63,-49.13,31.07
25497,-0.19,-0.31,0.85,0.26,40.79,-38.50,31.07
25507,-0.20,-0.29,0.88,-3.04,41.28,-32.42,31.07
25517,-0.23,-0.32,0.92,-9.39,32.37,-31.73,31.12
25527,-0.29,-0.34,0.96,-17.21,10.95,-34.19,31.02
25537,-0.30,-0.36,1.00,-21.52,-11.78,-35.08,31.02
25547,-0.27,-0.36,0.97,-20.41,-24.98,-33.00,31.12
25557,-0.20,-0.33,0.90,-18.15,-23.90,-27.56,31.02
25567,-0.13,-0.30,0.86,-18.02,-10.67,-18.49,31.02
25577,-0.06,-0.30,0.87,-20.12,7.19,-10.22,31.17
25587,-0.03,-0.33,0.91,-23.90,20.28,-5.72,31.07
25597,0.02,-0.36,0.96,-26.73,25.89,-4.99,31.07
25607,0.05,-0.40,0.98,-29.42,28.00,-7.04,31.07
25617,0.09,-0.45,1.02,-28.54,30.63,-10.79,31.07
25627,0.09,-0.48,1.05,-23.34,36.67,-15.28,31.17
25637,0.07,-0.51,1.08,-12.95,44.78,-17.03,31.02
25647,-0.03,-0.50,1.10,-9.67,40.56,-17.31,31.02
25657,-0.06,-0.45,1.10,-7.46,39.49,-16.52,31.12
25667,-0.09,-0.42,1.09,-6.21,37.99,-13.70,31.02
25677,-0.07,-0.45,1.07,-3.35,35.38,-11.64,31.12
25687,-0.08,-0.44,1.04,-6.12,24.27,-10.79,31.12
25697,-0.06,-0.43,1.03,-6.17,12.73,-13.85,31.17
25707,-0.06,-0.40,1.00,-6.11,5.46,-15.53,31.07
25717,-0.09,-0.39,0.95,-6.99,2.97,-14.24,31.07
25727,-0.07,-0.32,0.95,-8.95,8.58,-6.69,31.17
25737,-0.05,-0.36,0.95,-12.21,18.51,0.47,31.02
25747,-0.05,-0.37,1.02,-14.04,19.19,2.96,31.02
25757,-0.01,-0.42,1.04,-14.37,18.53,1.63,31.12
25767,0.00,-0.45,1.06,-15.46,7.60,-2.66,31.12
25777,0.00,-0.45,1.06,-13.57,1.08,-6.08,31.12
25787,-0.01,-0.43,1.07,-9.77,-3.11,-6.52,31.12
25797,-0.04,-0.43,1.07,-5.30,-4.73,-4.52,31.12
25807,0.00,-0.42,1.05,-0.20,-3.24,-1.57,31.07
25817,0.00,-0.43,1.02,-0.30,-5.65,-1.07,31.07
25827,0.03,-0.43,0.99,0.71,-4.02,-1.30,31.07
25837,0.08,-0.41,0.96,1.05,1.60,-1.30,31.07
25847,0.10,-0.42,0.95,-1.11,7.37,-4.33,31.07
25857,0.07,-0.43,0.96,-3.96,10.63,-8.95,31.07
25867,0.02,-0.39,0.97,-5.67,10.39,-11.14,30.93
25877,-0.04,-0.37,0.99,-7.87,6.94,-10.98,31.12
25887,-0.07,-0.40,1.02,-10.06,0.83,-8.73,31.02
25897,-0.09,-0.41,1.03,-9.12,-3.90,-4.65,31.21
25907,-0.06,-0.41,1.02,-6.15,-5.92,-0.13,31.12
25917,-0.02,-0.41,1.00,-4.50,-6.05,3.60,31.07
25927,0.01,-0.40,0.98,-4.63,-5.27,6.25,31.07
25937,0.07,-0.39,0.97,-5.51,-1.90,6.90,31.26
25947,0.10,-0.42,0.99,-7.27,1.31,5.15,31.07
25957,0.11,-0.45,1.01,-7.92,1.31,0.40,31.02
25967,0.09,-0.46,1.02,-8.00,0.47,-4.16,31.07
25977,0.07,-0.44,1.02,-6.03,-0.37,-6.66,31.12
25987,0.05,-0.43,1.01,-4.63,0.80,-6.68,31.12
25997,0.00,-0.41,1.00,-3.76,2.24,-4.92,31.12
26007,-0.01,-0.39,1.00,-2.40,4.80,-1.66,31.12
26017,-0.03,-0.39,1.00,-2.26,4.16,1.73,31.21
26027,-0.03,-0.39,1.01,-3.19,-0.28,3.69,31.17
26037,-0.01,-0.39,1.00,-4.14,-5.39,4.31,31.07
26047,0.03,-0.40,1.00,-4.68,-8.54,4.85,30.98
26057,0.07,-0.41,0.96,-4.61,-7.96,5.11,31.07
26067,0.11,-0.42,0.95,-5.27,-3.82,4.72,31.07
26077,0.11,-0.43,0.97,-7.05,-1.36,2.92,31.12
26087,0.11,-0.43,0.97,-7.66,0.04,0.96,31.12
26097,0.10,-0.42,0.98,-7.57,1.15,0.30,31.21
26107,0.08,-0.43,0.99,-6.91,2.57,0.07,31.02
26117,0.07,-0.43,1.01,-5.28,3.58,0.67,31.02
26127,0.05,-0.45,1.05,-2.53,3.68,1.50,31.12
26137,0.04,-0.45,1.03,-0.03,1.70,2.05,31.07
26147,0.04,-0.42,1.01,1.21,0.12,2.82,31.17
26157,0.05,-0.40,0.99,0.38,-1.08,3.94,31.17
26167,0.07,-0.40,0.98,-1.00,-2.21,4.76,31.17
26177,0.10,-0.40,0.97,-3.05,-1.67,4.40,31.12
26187,0.11,-0.41,0.98,-5.40,-1.05,2.40,31.07
26197,0.11,-0.44,1.01,-5.74,-1.11,0.17,31.12
26207,0.10,-0.46,1.01,-4.69,-0.53,-1.41,31.12
26217,0.07,-0.46,1.00,-2.84,-0.15,-3.34,31.02
26227,0.05,-0.42,0.98,-0.72,2.27,-2.41,31.02
26237,0.03,-0.39,0.98,-1.29,3.58,0.12,31.12
26247,0.02,-0.38,0.97,-3.56,1.31,1.96,31.07
26257,0.03,-0.40,0.98,-5.69,-1.65,2.56,31.07
26267,0.05,-0.42,0.98,-5.97,-4.11,3.34,31.17
26277,0.07,-0.43,0.99,-4.82,-3.76,4.11,31.07
26287,0.08,-0.42,0.99,-5.02,-4.90,4.18,31.07
26297,0.10,-0.43,0.99,-5.88,-8.58,3.54,31.07
26307,0.12,-0.43,0.99,-4.73,-12.02,0.98,31.02
26317,0.13,-0.43,0.96,-4.15,-9.95,-0.47,31.02
26327,0.13,-0.42,0.94,-3.46,-3.13,0.05,31.12
26337,0.10,-0.42,0.94,-3.01,3.88,1.47,31.02
26347,0.07,-0.43,0.98,-3.46,5.27,1.94,31.12
26357,0.05,-0.43,0.99,-3.39,0.12,0.09,31.07
26367,0.05,-0.41,0.97,-3.34,-6.24,-1.19,31.07
26377,0.07,-0.39,0.95,-5.11,-8.69,-1.49,31.07
26387,0.07,-0.39,0.95,-7.40,-7.18,-0.19,31.07
26397,0.08,-0.40,0.96,-8.25,-5.88,0.81,31.02
26407,0.07,-0.42,0.97,-8.57,-3.76,0.47,31.17
26417,0.07,-0.42,0.98,-8.31,-3.08,0.24,31.12
26427,0.07,-0.41,0.99,-7.96,-2.99,0.38,31.12
26437,0.07,-0.43,0.99,-7.60,-2.25,1.01,31.02
26447,0.08,-0.43,0.99,-6.56,-1.39,1.56,31.12
26457,0.09,-0.44,0.99,-4.53,1.13,1.82,31.21
26467,0.10,-0.45,0.99,-4.02,2.37,0.95,31.17
26477,0.09,-0.43,1.00,-4.37,2.80,-0.19,31.17
26487,0.09,-0.44,1.00,-5.03,2.11,-1.40,31.07
26497,0.07,-0.42,0.98,-5.48,0.36,-1.50,31.17
26507,0.07,-0.42,0.99,-5.40,-0.48,-0.76,31.17
26517,0.06,-0.42,0.99,-5.27,-0.23,0.92,31.21
26527,0.06,-0.43,0.99,-5.04,1.80,2.34,31.12
26537,0.06,-0.44,1.01,-4.37,2.19,3.27,31.21
26547,0.08,-0.44,0.99,-3.52,0.82,3.27,31.12
26557,0.10,-0.43,0.98,-3.09,0.02,2.18,31.12
26567,0.11,-0.42,0.96,-4.05,1.67,1.02,31.17
26577,0.11,-0.43,0.98,-4.71,3.82,0.67,31.07
26587,0.10,-0.44,0.98,-5.08,5.73,0.04,31.07
26597,0.08,-0.44,0.99,-4.28,5.53,-0.95,31.07
26607,0.07,-0.44,1.00,-2.57,3.30,-1.99,31.07
26617,0.07,-0.42,0.98,-0.93,1.21,-2.19,31.02
26627,0.06,-0.42,0.96,-1.51,0.52,-1.70,31.12
26637,0.06,-0.41,0.96,-2.34,-0.24,-0.57,31.12
26647,0.06,-0.41,0.95,-3.45,0.05,0.20,31.12
26657,0.05,-0.41,0.95,-4.76,-0.13,1.15,31.12
26667,0.06,-0.42,0.95,-5.85,0.11,2.53,31.17
26677,0.07,-0.41,0.95,-6.76,0.92,3.70,31.07
26687,0.08,-0.42,0.96,-7.16,1.49,4.41,31.17
26697,0.10,-0.43,0.97,-7.05,2.25,3.94,31.17
26707,0.09,-0.45,1.01,-7.01,1.85,3.15,31.12
26717,0.09,-0.44,1.01,-6.54,0.09,1.91,31.17
26727,0.09,-0.45,1.02,-5.16,-1.48,1.13,31.12
26737,0.10,-0.44,1.00,-3.70,-1.42,0.63,31.12
26747,0.10,-0.43,0.98,-3.09,0.00,0.32,31.12
26757,0.09,-0.44,0.98,-2.63,2.06,0.68,31.21
26767,0.09,-0.43,0.97,-1.57,3.90,0.61,31.12
26777,0.08,-0.43,0.97,-2.10,3.95,0.78,31.17
26787,0.07,-0.42,0.98,-3.77,2.24,0.38,31.17
26797,0.06,-0.42,0.98,-4.54,0.17,1.15,31.07
26807,0.07,-0.42,0.97,-4.97,-0.51,1.87,31.07
26817,0.08,-0.42,0.97,-5.75,-0.84,2.37,31.17
26827,0.10,-0.42,0.96,-6.90,-0.30,2.86,31.12
26837,0.11,-0.44,0.97,-6.30,0.82,2.08,31.12
26847,0.10,-0.45,0.99,-5.29,2.14,1.65,31.02
26857,0.10,-0.45,0.99,-4.39,2.24,0.79,31.12
26867,0.09,-0.44,0.98,-3.95,1.34,0.34,31.21
26877,0.08,-0.42,0.97,-4.03,0.43,0.61,31.02
26887,0.08,-0.42,0.96,-4.28,0.69,1.20,31.07
26897,0.08,-0.42,0.96,-5.69,1.11,1.24,31.17
26907,0.07,-0.42,0.97,-6.83,1.35,1.11,31.17
26917,0.08,-0.42,0.97,-6.67,0.75,1.34,31.07
26927,0.08,-0.43,0.97,-6.26,-0.25,1.60,31.12
26937,0.08,-0.44,0.96,-5.86,-1.28,1.57,31.02
26947,0.09,-0.45,0.98,-5.15,-2.00,0.66,31.12
26957,0.09,-0.44,0.97,-4.05,-0.93,0.31,31.12
26967,0.09,-0.44,0.96,-3.78,0.23,0.27,31.12
26977,0.09,-0.43,0.96,-4.45,-0.02,0.20,31.12
26987,0.08,-0.43,0.97,-5.36,-1.01,-0.21,31.12
26997,0.10,-0.43,0.96,-5.95,-1.26,0.06,31.17
27007,0.09,-0.43,0.95,-6.32,-0.63,0.19,31.17
27017,0.10,-0.42,0.96,-6.28,1.30,1.17,31.17
27027,0.10,-0.43,0.97,-7.02,2.34,1.37,31.17
27037,0.09,-0.43,0.98,-7.18,2.38,1.13,31.17
27047,0.09,-0.44,0.99,-7.10,1.98,1.18,31.17
27057,0.08,-0.44,1.00,-6.21,1.34,1.00,31.12
27067,0.08,-0.44,1.00,-5.78,1.05,1.31,31.12
27077,0.09,-0.44,1.00,-5.50,0.52,1.94,31.12
27087,0.10,-0.44,1.01,-4.59,0.45,1.76,31.12
27097,0.11,-0.45,0.99,-4.93,-0.45,1.59,31.12
27107,0.11,-0.44,0.99,-5.82,-1.00,0.66,31.17
27117,0.12,-0.44,0.99,-6.07,-0.31,0.34,31.17
27127,0.12,-0.45,0.99,-6.03,1.35,-0.05,31.17
27137,0.13,-0.45,1.00,-5.31,3.60,-0.74,31.17
27147,0.11,-0.45,1.01,-5.15,4.51,-0.76,31.12
27157,0.10,-0.46,1.01,-3.78,4.35,-1.05,31.12
27167,0.09,-0.46,1.02,-2.44,3.84,-0.85,31.12
