Millis,Acce_X,Acce_Y,Acce_Z,Gyro_X,Gyro_Y,Gyro_Z,Temp
103687,-0.07,-0.35,1.00,16.03,-21.56,1.83,30.46
103697,0.02,-0.32,0.96,12.09,-10.27,5.13,30.51
103707,0.02,-0.32,0.94,6.84,-2.58,5.57,30.41
103717,0.00,-0.32,0.97,1.22,0.29,4.32,30.41
103727,-0.05,-0.35,1.00,-1.34,-1.28,3.51,30.41
103737,-0.10,-0.34,1.03,-1.92,-4.43,4.52,30.41
103747,-0.13,-0.34,1.06,-0.53,-9.88,4.58,30.46
103757,-0.14,-0.34,1.05,1.57,-15.74,5.25,30.41
103767,-0.13,-0.32,1.02,2.87,-19.60,5.89,30.46
103777,-0.11,-0.32,1.01,3.79,-19.40,6.99,30.46
103787,-0.09,-0.32,0.99,3.31,-15.65,8.58,30.46
103797,-0.09,-0.33,0.98,1.65,-10.09,9.89,30.37
103807,-0.13,-0.32,1.01,-0.40,-6.73,10.18,30.37
103817,-0.17,-0.34,1.03,-0.64,-6.32,11.83,30.46
103827,-0.21,-0.36,1.05,0.63,-8.21,14.96,30.46
103837,-0.21,-0.35,1.05,2.79,-8.95,18.14,30.37
103847,-0.20,-0.35,1.04,3.39,-7.89,20.00,30.41
103857,-0.21,-0.36,1.05,3.25,-6.96,20.79,30.41
103867,-0.24,-0.36,1.05,3.95,-6.31,21.95,30.41
103877,-0.29,-0.34,1.05,3.77,-4.87,25.01,30.41
103887,-0.32,-0.35,1.07,4.89,-2.87,30.34,30.41
103897,-0.36,-0.37,1.08,4.90,-2.44,36.37,30.41
103907,-0.38,-0.36,1.09,4.98,-2.35,43.57,30.41
103917,-0.35,-0.35,1.09,3.85,1.94,51.24,30.46
103927,-0.33,-0.35,1.12,2.50,7.25,58.90,30.27
103937,-0.32,-0.39,1.14,1.65,13.02,65.15,30.46
103947,-0.35,-0.42,1.22,1.33,17.48,71.44,30.46
103957,-0.36,-0.47,1.27,4.32,18.37,79.53,30.37
103967,-0.34,-0.49,1.30,7.04,18.31,85.94,30.46
103977,-0.30,-0.53,1.33,11.15,13.39,92.43,30.37
103987,-0.25,-0.56,1.32,15.66,0.76,94.72,30.46
103997,-0.17,-0.59,1.29,17.89,-10.50,92.56,30.32
104007,-0.12,-0.61,1.25,21.01,-25.22,88.98,30.32
104017,-0.07,-0.61,1.21,23.79,-37.97,84.35,30.41
104027,-0.03,-0.60,1.15,27.62,-49.77,78.87,30.32
104037,0.00,-0.59,1.07,31.76,-62.63,69.74,30.41
104047,0.01,-0.55,0.97,35.47,-75.62,60.14,30.46
104057,0.04,-0.45,0.83,40.09,-79.57,54.87,30.41
104067,0.06,-0.36,0.69,35.11,-64.60,54.27,30.37
104077,0.03,-0.33,0.62,28.73,-38.34,56.93,30.46
104087,-0.07,-0.31,0.62,20.60,-9.82,62.17,30.37
104097,-0.19,-0.28,0.68,10.61,8.34,68.06,30.37
104107,-0.33,-0.29,0.73,3.30,11.19,75.19,30.37
104117,-0.41,-0.29,0.83,-2.24,3.65,83.04,30.46
104127,-0.47,-0.33,0.91,-2.35,-15.24,91.45,30.46
104137,-0.44,-0.38,0.96,-3.50,-33.57,98.52,30.41
104147,-0.37,-0.42,0.98,-2.23,-48.21,104.96,30.41
104157,-0.27,-0.44,1.00,0.21,-57.68,108.98,30.41
104167,-0.15,-0.48,0.98,5.39,-61.68,112.32,30.32
104177,-0.03,-0.51,0.95,8.43,-51.10,114.38,30.37
104187,0.06,-0.52,0.93,11.19,-33.37,113.02,30.41
104197,0.09,-0.52,0.94,12.31,-17.19,108.37,30.32
104207,0.04,-0.53,0.95,9.30,-9.25,100.75,30.37
104217,-0.07,-0.53,0.96,11.01,-14.89,94.98,30.46
104227,-0.11,-0.46,0.89,13.79,-15.60,96.76,30.46
104237,-0.13,-0.42,0.82,12.40,-10.21,107.37,30.46
104247,-0.10,-0.43,0.78,9.10,5.71,118.55,30.37
104257,-0.10,-0.47,0.81,3.92,22.05,126.35,30.37
104267,-0.09,-0.48,0.87,0.29,33.47,129.89,30.46
104277,-0.09,-0.49,0.85,-1.37,39.44,131.97,30.51
104287,-0.11,-0.48,0.88,-4.02,46.73,133.19,30.41
104297,-0.14,-0.46,0.90,-6.03,54.02,137.37,30.41
104307,-0.15,-0.49,0.92,-6.90,65.15,143.51,30.41
104317,-0.15,-0.54,0.95,-8.09,74.46,149.59,30.41
104327,-0.13,-0.60,0.98,-6.89,77.30,153.98,30.51
104337,-0.12,-0.64,1.03,-6.82,72.76,152.90,30.41
104347,-0.10,-0.67,1.10,-3.69,60.76,145.16,30.46
104357,-0.12,-0.66,1.14,-5.45,38.52,128.37,30.46
104367,-0.17,-0.61,1.14,-8.49,9.44,114.99,30.46
104377,-0.20,-0.55,1.07,-8.05,-10.14,110.61,30.37
104387,-0.17,-0.54,1.04,-10.17,-19.11,110.67,30.37
104397,-0.15,-0.56,1.00,-9.82,-31.62,108.14,30.37
104407,-0.20,-0.59,0.98,-12.84,-49.79,99.60,30.32
104417,-0.29,-0.61,0.98,-11.37,-80.21,88.23,30.32
104427,-0.35,-0.53,0.89,-9.13,-107.53,78.47,30.41
104437,-0.34,-0.42,0.77,-11.88,-121.01,78.95,30.32
104447,-0.29,-0.31,0.66,-10.24,-113.82,95.42,30.41
104457,-0.19,-0.32,0.61,-13.86,-87.30,116.11,30.41
104467,-0.06,-0.40,0.66,-20.37,-53.69,133.79,30.41
104477,0.03,-0.44,0.75,-23.79,-28.63,138.92,30.37
104487,-0.01,-0.54,0.87,-30.12,-25.59,132.29,30.37
104497,-0.10,-0.60,1.00,-34.44,-45.54,117.48,30.37
104507,-0.18,-0.61,1.11,-32.27,-80.81,104.06,30.37
104517,-0.18,-0.53,1.06,-22.46,-100.44,104.12,30.46
104527,-0.04,-0.41,0.87,-16.81,-85.13,120.00,30.46
104537,0.06,-0.47,0.91,-17.05,-64.31,136.70,30.41
104547,0.16,-0.57,0.98,-17.94,-36.70,145.28,30.41
104557,0.15,-0.64,1.09,-21.15,-26.93,137.05,30.41
104567,0.12,-0.73,1.20,-16.79,-44.82,115.85,30.41
104577,0.02,-0.71,1.20,-10.87,-83.08,91.19,30.41
104587,-0.00,-0.55,1.01,-0.67,-100.87,86.40,30.41
104597,0.03,-0.41,0.86,2.17,-96.41,98.11,30.32
104607,0.09,-0.38,0.80,1.37,-87.34,110.29,30.46
104617,0.16,-0.45,0.80,-7.47,-68.84,121.83,30.37
104627,0.25,-0.51,0.86,-16.08,-62.41,120.96,30.37
104637,0.29,-0.53,0.89,-17.42,-59.86,115.74,30.46
104647,0.37,-0.45,0.86,-15.91,-47.25,114.52,30.37
104657,0.42,-0.45,0.86,-8.00,-17.79,124.50,30.37
104667,0.46,-0.49,0.92,1.56,20.92,140.70,30.37
104677,0.48,-0.56,1.05,10.44,47.71,149.27,30.32
104687,0.50,-0.65,1.15,15.97,47.15,144.00,30.51
104697,0.52,-0.71,1.19,22.24,14.35,128.58,30.41
104707,0.59,-0.69,1.09,28.06,-30.75,95.54,30.32
104717,0.63,-0.60,0.88,21.56,-56.29,62.67,30.32
104727,0.57,-0.41,0.74,9.82,-73.98,38.72,30.41
104737,0.48,-0.26,0.67,-0.61,-69.98,30.85,30.37
104747,0.46,-0.17,0.65,-12.43,-41.60,39.31,30.46
104757,0.33,-0.17,0.77,-15.47,-26.82,54.06,30.37
104767,0.29,-0.26,0.87,-13.30,-18.17,63.04,30.37
104777,0.25,-0.36,0.94,-5.25,-15.33,66.81,30.37
104787,0.23,-0.37,1.01,-3.62,-17.53,68.47,30.37
104797,0.20,-0.40,1.08,1.77,-28.43,68.38,30.37
104807,0.15,-0.37,1.13,3.04,-45.13,65.28,30.41
104817,0.17,-0.39,1.10,0.24,-68.02,56.72,30.32
104827,0.20,-0.30,1.03,-3.45,-85.91,50.14,30.41
104837,0.27,-0.26,1.01,-5.01,-84.82,52.08,30.41
104847,0.36,-0.25,1.00,1.16,-62.24,63.45,30.32
104857,0.45,-0.24,0.95,5.07,-32.34,77.56,30.41
104867,0.48,-0.31,0.97,5.73,-10.21,83.34,30.46
104877,0.48,-0.37,0.99,5.11,-0.17,77.88,30.37
104887,0.42,-0.42,1.00,2.18,-7.74,65.10,30.46
104897,0.35,-0.42,1.00,1.01,-21.71,50.27,30.37
104907,0.27,-0.43,0.98,-0.26,-41.69,35.65,30.37
104917,0.19,-0.39,0.96,-2.55,-62.03,22.00,30.37
104927,0.11,-0.27,0.90,-7.15,-78.37,15.31,30.46
104937,0.07,-0.12,0.86,-11.22,-84.31,24.50,30.32
104947,0.12,-0.02,0.82,-11.01,-86.05,42.50,30.32
104957,0.14,-0.09,0.84,-12.66,-76.31,61.08,30.41
104967,0.20,-0.12,0.84,-16.79,-62.27,78.76,30.41
104977,0.28,-0.16,0.89,-18.99,-48.98,93.57,30.41
104987,0.32,-0.25,1.00,-20.52,-40.92,101.91,30.32
104997,0.42,-0.38,1.08,-17.08,-42.20,95.97,30.37
105007,0.54,-0.48,1.01,-18.60,-46.26,77.31,30.37
105017,0.58,-0.52,1.07,-19.88,-55.37,52.17,30.37
105027,0.56,-0.51,1.08,-18.58,-66.15,32.73,30.37
105037,0.53,-0.41,1.04,-13.95,-62.06,24.12,30.37
105047,0.50,-0.32,0.98,-8.03,-44.53,28.47,30.37
105057,0.45,-0.33,0.98,-2.37,-22.53,39.01,30.37
105067,0.41,-0.34,1.00,0.34,-11.74,43.77,30.41
105077,0.33,-0.33,1.01,-3.39,-12.84,41.28,30.32
105087,0.30,-0.33,1.03,-8.14,-26.02,35.50,30.32
105097,0.31,-0.32,0.99,-13.24,-39.02,26.87,30.41
105107,0.35,-0.29,0.97,-17.91,-47.34,19.91,30.41
105117,0.36,-0.27,0.95,-19.68,-48.99,18.43,30.32
105127,0.41,-0.29,0.93,-17.37,-40.35,21.44,30.46
105137,0.44,-0.31,0.98,-15.60,-25.68,24.69,30.37
105147,0.46,-0.36,1.04,-12.38,-11.65,26.63,30.37
105157,0.45,-0.42,1.11,-8.73,-5.92,23.22,30.37
105167,0.42,-0.44,1.12,-4.75,-9.42,16.43,30.37
105177,0.42,-0.43,1.07,-1.77,-16.44,8.20,30.37
105187,0.42,-0.38,1.02,0.15,-19.89,1.98,30.46
105197,0.43,-0.34,0.96,1.30,-18.20,0.98,30.41
105207,0.46,-0.31,0.89,1.56,-7.08,4.70,30.41
105217,0.51,-0.31,0.87,-0.11,12.47,6.87,30.32
105227,0.49,-0.33,0.92,-2.23,21.53,5.57,30.32
105237,0.43,-0.33,0.96,-5.37,21.82,1.76,30.32
105247,0.38,-0.36,1.01,-8.52,15.56,-3.02,30.41
105257,0.34,-0.35,1.04,-8.76,4.20,-7.02,30.46
105267,0.32,-0.36,1.06,-7.48,-5.07,-8.44,30.37
105277,0.32,-0.35,1.06,-5.31,-8.41,-7.36,30.37
105287,0.34,-0.35,1.05,-1.19,-7.59,-5.18,30.46
105297,0.36,-0.31,0.99,1.16,-3.62,-3.27,30.37
105307,0.39,-0.30,0.95,0.53,0.89,-1.18,30.46
105317,0.42,-0.30,0.93,-0.92,4.95,-1.04,30.41
105327,0.43,-0.30,0.91,-3.63,7.51,-1.18,30.41
105337,0.46,-0.32,0.90,-6.34,7.80,-3.54,30.51
105347,0.46,-0.34,0.90,-8.90,7.18,-9.36,30.32
105357,0.44,-0.34,0.90,-11.24,6.47,-15.36,30.32
105367,0.41,-0.34,0.90,-11.94,5.15,-19.05,30.51
105377,0.39,-0.32,0.91,-12.00,8.35,-19.01,30.41
105387,0.35,-0.31,0.94,-11.79,13.57,-15.88,30.37
105397,0.32,-0.34,0.98,-8.78,16.72,-11.28,30.37
105407,0.29,-0.33,1.01,-5.51,16.05,-8.40,30.37
105417,0.29,-0.33,1.00,-3.95,11.94,-7.47,30.37
105427,0.30,-0.31,0.99,-2.61,5.08,-7.51,30.27
105437,0.33,-0.30,0.94,-3.48,3.48,-8.09,30.37
105447,0.36,-0.31,0.93,-3.66,4.37,-9.13,30.27
105457,0.37,-0.30,0.92,-4.87,6.85,-10.75,30.41
105467,0.38,-0.31,0.92,-6.06,9.37,-12.02,30.32
105477,0.37,-0.31,0.91,-9.16,10.43,-12.87,30.41
105487,0.36,-0.31,0.94,-10.12,12.17,-12.89,30.32
105497,0.36,-0.31,0.96,-8.49,14.31,-10.96,30.41
105507,0.38,-0.32,0.95,-6.58,17.86,-8.69,30.41
105517,0.40,-0.35,0.96,-3.98,20.29,-8.75,30.37
105527,0.41,-0.34,0.97,-3.82,21.11,-10.85,30.37
105537,0.41,-0.36,0.98,-3.77,18.06,-11.25,30.37
105547,0.43,-0.33,0.96,-4.14,14.82,-13.08,30.46
105557,0.47,-0.34,0.94,-4.17,12.11,-15.01,30.46
105567,0.51,-0.34,0.91,-4.38,11.83,-17.31,30.37
105577,0.54,-0.34,0.91,-6.15,12.90,-20.27,30.46
105587,0.55,-0.36,0.90,-7.68,14.99,-23.04,30.32
105597,0.55,-0.35,0.91,-9.65,18.08,-25.25,30.32
105607,0.54,-0.37,0.93,-10.24,16.84,-26.73,30.51
105617,0.54,-0.39,0.94,-9.66,12.09,-28.03,30.32
105627,0.55,-0.43,0.94,-6.50,5.13,-29.69,30.41
105637,0.62,-0.46,0.91,-2.84,-2.27,-32.61,30.51
105647,0.69,-0.46,0.84,-2.78,-0.14,-37.68,30.37
105657,0.72,-0.46,0.82,-4.75,7.83,-46.61,30.37
105667,0.71,-0.46,0.86,-9.54,18.96,-56.64,30.37
105677,0.65,-0.45,0.89,-11.79,33.37,-63.25,30.37
105687,0.55,-0.44,0.93,-11.83,46.02,-65.28,30.37
105697,0.47,-0.43,0.98,-10.56,51.42,-65.37,30.37
105707,0.38,-0.44,1.02,-8.99,48.95,-64.87,30.46
105717,0.34,-0.42,1.02,-6.15,43.74,-63.83,30.41
105727,0.32,-0.42,1.00,-3.65,38.53,-62.24,30.32
105737,0.34,-0.41,0.97,-3.19,38.23,-62.12,30.51
105747,0.33,-0.40,0.95,-2.69,39.08,-62.93,30.32
105757,0.32,-0.38,0.92,-3.56,42.66,-63.44,30.41
105767,0.31,-0.37,0.92,-5.31,45.22,-63.85,30.41
105777,0.29,-0.38,0.90,-7.27,45.25,-65.36,30.46
105787,0.28,-0.38,0.92,-9.50,45.13,-67.19,30.37
105797,0.27,-0.37,0.92,-11.33,43.01,-68.56,30.37
105807,0.25,-0.36,0.92,-11.74,41.37,-68.31,30.37
105817,0.25,-0.38,0.93,-10.87,40.34,-67.05,30.37
105827,0.26,-0.38,0.94,-10.61,40.21,-67.24,30.46
105837,0.25,-0.40,0.94,-11.33,38.69,-68.75,30.46
105847,0.25,-0.40,0.94,-10.61,37.98,-72.02,30.32
105857,0.23,-0.38,0.93,-10.73,37.04,-74.29,30.32
105867,0.21,-0.37,0.93,-10.41,37.97,-75.01,30.41
105877,0.20,-0.36,0.93,-10.43,39.30,-75.04,30.41
105887,0.18,-0.36,0.93,-12.24,39.31,-74.21,30.41
105897,0.17,-0.36,0.96,-13.59,38.18,-73.74,30.41
105907,0.18,-0.37,0.96,-14.20,36.79,-73.15,30.37
105917,0.20,-0.37,0.95,-14.75,37.71,-72.50,30.46
105927,0.21,-0.37,0.97,-15.45,41.89,-71.92,30.46
105937,0.20,-0.39,0.99,-14.70,44.84,-70.90,30.46
105947,0.19,-0.42,1.02,-12.58,45.19,-69.02,30.37
105957,0.17,-0.42,1.03,-9.65,43.86,-68.73,30.37
105967,0.14,-0.42,1.02,-9.05,34.63,-69.39,30.32
105977,0.13,-0.42,1.01,-9.19,18.58,-69.80,30.41
105987,0.16,-0.42,0.96,-10.35,-0.44,-71.28,30.41
105997,0.20,-0.45,0.90,-12.99,-20.21,-72.40,30.32
106007,0.25,-0.49,0.84,-13.37,-44.60,-75.21,30.41
106017,0.33,-0.54,0.70,-12.95,-55.42,-79.30,30.41
106027,0.46,-0.53,0.53,-14.64,-44.15,-84.58,30.32
106037,0.55,-0.44,0.48,-16.87,-12.78,-89.45,30.37
106047,0.52,-0.40,0.49,-26.50,21.16,-93.21,30.37
106057,0.43,-0.39,0.59,-32.79,44.44,-91.11,30.46
106067,0.36,-0.41,0.73,-39.18,56.58,-93.79,30.37
106077,0.32,-0.44,0.85,-47.44,62.20,-101.34,30.37
106087,0.20,-0.48,1.03,-49.86,58.61,-103.57,30.37
106097,0.14,-0.53,1.17,-42.29,57.37,-103.74,30.51
106107,0.08,-0.58,1.25,-32.12,55.53,-102.82,30.41
106117,0.02,-0.59,1.31,-20.32,47.16,-102.00,30.41
106127,-0.00,-0.54,1.28,-11.63,38.78,-103.13,30.32
106137,-0.01,-0.49,1.24,-6.61,30.18,-104.15,30.41
106147,0.02,-0.43,1.17,-2.85,29.86,-102.44,30.41
106157,0.03,-0.37,1.08,-3.11,36.69,-99.62,30.32
106167,0.03,-0.34,1.03,-5.48,43.83,-95.80,30.46
106177,0.02,-0.32,1.02,-9.36,51.30,-89.97,30.37
106187,-0.01,-0.34,1.03,-12.85,54.90,-86.02,30.37
106197,-0.03,-0.37,1.05,-13.44,49.47,-82.81,30.46
106207,-0.02,-0.39,1.03,-14.23,39.62,-82.09,30.37
106217,0.02,-0.39,1.00,-13.10,30.67,-82.40,30.46
106227,0.07,-0.35,0.96,-14.61,30.63,-81.36,30.46
106237,0.09,-0.36,0.97,-16.56,40.44,-78.23,30.41
106247,0.10,-0.36,1.01,-15.91,52.29,-74.79,30.41
106257,0.09,-0.37,1.04,-15.10,61.07,-72.67,30.41
106267,0.06,-0.41,1.07,-12.41,59.74,-72.66,30.41
106277,0.07,-0.40,1.10,-10.34,53.71,-74.84,30.41
106287,0.07,-0.42,1.09,-8.90,46.29,-78.23,30.32
106297,0.07,-0.42,1.07,-6.50,39.39,-81.47,30.46
106307,0.06,-0.43,1.04,-2.81,33.73,-83.42,30.32
106317,0.08,-0.37,0.98,-2.18,36.41,-82.93,30.46
106327,0.08,-0.35,0.98,-5.45,45.11,-80.15,30.37
106337,0.10,-0.35,0.99,-8.99,50.49,-78.32,30.46
106347,0.07,-0.36,1.00,-11.53,55.37,-77.54,30.46
106357,0.05,-0.37,1.03,-12.18,53.53,-78.55,30.37
106367,0.05,-0.37,1.03,-12.37,48.55,-78.96,30.37
106377,0.04,-0.36,1.05,-13.53,41.05,-79.94,30.41
106387,0.08,-0.38,1.05,-12.64,35.04,-81.16,30.32
106397,0.12,-0.41,1.03,-10.87,38.02,-82.70,30.41
106407,0.13,-0.41,1.01,-9.31,46.58,-83.04,30.41
106417,0.13,-0.43,1.03,-6.82,56.02,-84.18,30.51
106427,0.11,-0.44,1.02,-4.69,63.13,-85.11,30.46
106437,0.07,-0.42,1.04,-3.50,61.11,-86.81,30.46
106447,0.05,-0.42,1.03,-2.52,53.42,-89.57,30.27
106457,0.03,-0.43,0.99,-1.54,46.27,-92.34,30.46
106467,0.00,-0.42,0.94,-2.89,41.21,-91.79,30.46
106477,-0.01,-0.42,0.88,-3.33,41.34,-84.99,30.46
106487,0.02,-0.42,0.85,-4.81,47.27,-75.56,30.37
106497,0.07,-0.42,0.85,-6.55,47.68,-69.33,30.41
106507,0.10,-0.43,0.87,-12.29,37.54,-72.90,30.41
106517,0.09,-0.41,0.95,-18.41,12.69,-83.07,30.41
106527,0.11,-0.38,0.93,-20.92,-9.48,-92.72,30.41
106537,0.13,-0.35,0.92,-26.14,-8.27,-94.73,30.41
106547,0.11,-0.40,1.01,-28.29,5.85,-94.50,30.51
106557,0.07,-0.47,1.08,-23.83,21.13,-94.08,30.37
106567,0.01,-0.51,1.10,-17.27,30.02,-92.44,30.27
106577,-0.06,-0.47,1.07,-9.92,29.34,-89.33,30.37
106587,-0.08,-0.40,1.01,-2.44,31.69,-86.06,30.46
106597,-0.09,-0.34,0.95,-1.02,35.82,-81.10,30.46
106607,-0.07,-0.32,0.90,-3.65,39.79,-79.89,30.46
106617,-0.11,-0.29,0.91,-11.94,37.60,-80.43,30.46
106627,-0.11,-0.29,0.93,-17.59,37.36,-80.38,30.41
106637,-0.12,-0.32,0.96,-20.76,41.51,-79.95,30.41
106647,-0.14,-0.38,1.02,-20.02,49.24,-78.64,30.41
106657,-0.17,-0.41,1.05,-14.75,59.50,-76.05,30.41
106667,-0.21,-0.41,1.05,-10.05,66.43,-71.53,30.41
106677,-0.25,-0.39,1.07,-4.67,67.92,-66.47,30.41
106687,-0.25,-0.34,1.06,-3.57,66.55,-61.16,30.46
106697,-0.25,-0.33,1.06,-5.89,61.82,-58.66,30.37
106707,-0.24,-0.31,1.07,-7.65,54.73,-58.98,30.46
106717,-0.24,-0.33,1.09,-10.18,46.38,-60.03,30.46
106727,-0.26,-0.38,1.11,-9.30,38.15,-60.47,30.46
106737,-0.26,-0.38,1.09,-6.52,34.12,-58.35,30.46
106747,-0.25,-0.35,1.07,-3.68,33.33,-52.24,30.46
106757,-0.20,-0.34,1.04,-1.24,36.93,-45.68,30.41
106767,-0.14,-0.33,1.02,-1.27,40.50,-40.31,30.32
106777,-0.09,-0.34,1.00,-3.50,43.22,-39.76,30.41
106787,-0.07,-0.35,0.99,-5.73,45.47,-41.39,30.51
106797,-0.07,-0.35,1.04,-9.13,43.39,-44.17,30.41
106807,-0.08,-0.41,1.13,-9.25,38.92,-45.50,30.32
106817,-0.08,-0.45,1.16,-6.35,29.37,-51.10,30.37
106827,-0.12,-0.44,1.24,-3.27,11.82,-56.56,30.46
106837,-0.13,-0.41,1.16,3.15,-0.46,-58.17,30.46
106847,-0.13,-0.39,1.09,6.81,-2.31,-54.85,30.46
106857,-0.12,-0.36,1.02,10.95,3.56,-50.66,30.46
106867,-0.13,-0.32,0.98,11.21,12.63,-45.88,30.46
106877,-0.15,-0.27,0.94,7.97,17.94,-41.89,30.37
106887,-0.19,-0.26,0.93,4.09,16.98,-39.65,30.46
106897,-0.20,-0.28,0.92,-0.50,15.37,-36.99,30.41
106907,-0.19,-0.28,0.93,-2.92,12.69,-34.53,30.41
106917,-0.19,-0.31,0.96,-5.27,6.55,-34.08,30.41
106927,-0.19,-0.32,0.97,-6.03,-1.33,-34.60,30.51
106937,-0.19,-0.32,1.00,-5.69,-9.21,-34.76,30.41
106947,-0.16,-0.32,1.00,-4.50,-14.79,-33.05,30.46
106957,-0.14,-0.33,0.98,-3.39,-14.73,-30.93,30.46
106967,-0.09,-0.32,0.95,-3.13,-6.92,-29.18,30.37
106977,-0.08,-0.31,0.94,-3.57,-0.34,-28.43,30.37
106987,-0.09,-0.31,0.93,-4.93,7.11,-28.85,30.46
106997,-0.13,-0.29,0.94,-7.22,12.00,-26.81,30.37
107007,-0.14,-0.30,0.96,-9.10,12.23,-23.59,30.46
107017,-0.13,-0.33,0.96,-9.71,12.32,-21.11,30.41
107027,-0.11,-0.32,0.99,-9.47,7.42,-19.25,30.41
107037,-0.07,-0.33,0.98,-10.21,-0.60,-21.69,30.32
107047,-0.05,-0.30,0.98,-13.15,-6.85,-26.61,30.41
107057,-0.07,-0.30,0.98,-17.15,-11.02,-28.32,30.41
107067,-0.07,-0.28,1.03,-15.92,-9.77,-26.85,30.51
107077,-0.10,-0.29,1.05,-15.30,-2.56,-22.75,30.37
107087,-0.13,-0.30,1.07,-12.84,4.70,-19.11,30.37
107097,-0.15,-0.33,1.11,-8.78,7.74,-16.69,30.37
107107,-0.19,-0.31,1.12,-5.19,4.96,-14.05,30.46
107117,-0.20,-0.32,1.11,-3.01,-0.32,-11.50,30.46
107127,-0.29,-0.29,1.11,2.35,-18.58,1.89,30.37
107137,-0.38,-0.21,1.14,8.96,-37.11,16.67,30.46
107147,-0.15,-0.27,1.06,0.90,-22.18,19.97,30.51
107157,-0.06,-0.34,1.08,-0.18,-23.19,10.46,30.51
107167,-0.06,-0.31,1.03,-1.16,-24.96,5.73,30.41
107177,-0.04,-0.36,1.03,-5.25,-20.41,0.06,30.41
107187,-0.03,-0.35,1.08,-6.66,-8.40,-5.56,30.41
107197,-0.03,-0.33,1.02,-3.98,1.07,-5.25,30.41
107207,0.02,-0.33,1.02,-5.73,10.79,-5.39,30.46
107217,0.03,-0.34,1.02,-5.48,10.32,-7.15,30.46
107227,0.01,-0.33,1.05,-5.57,9.74,-8.47,30.46
107237,0.02,-0.32,1.05,-6.23,7.69,-9.05,30.37
107247,0.02,-0.35,1.04,-5.68,7.31,-8.84,30.37
107257,0.02,-0.35,1.03,-3.91,6.72,-9.85,30.46
107267,-0.01,-0.33,1.04,-2.38,3.71,-9.95,30.46
107277,-0.01,-0.31,1.02,-1.71,0.08,-9.05,30.41
107287,0.00,-0.28,0.99,-2.58,-3.18,-6.52,30.41
107297,0.03,-0.26,0.98,-5.42,-3.94,-4.14,30.41
107307,0.06,-0.27,0.98,-7.44,-2.49,-2.56,30.41
107317,0.10,-0.29,0.98,-9.16,1.54,-3.10,30.41
107327,0.10,-0.32,1.02,-9.54,4.14,-5.15,30.41
107337,0.08,-0.32,1.03,-7.25,4.89,-7.11,30.37
107347,0.06,-0.32,1.05,-6.66,3.21,-8.17,30.46
107357,0.05,-0.31,1.05,-4.26,1.91,-7.83,30.37
107367,0.01,-0.29,1.04,-2.85,-0.47,-4.79,30.46
107377,0.03,-0.28,1.03,-2.27,0.21,-1.82,30.46
107387,0.03,-0.28,1.03,-2.58,-3.07,-0.72,30.37
107397,0.01,-0.27,1.03,-3.21,-7.88,-0.76,30.37
107407,0.01,-0.28,1.03,-2.78,-12.49,0.12,30.41
107417,0.03,-0.28,1.02,-2.31,-13.79,1.82,30.41
107427,0.04,-0.29,1.02,-1.69,-11.30,3.39,30.41
107437,0.06,-0.29,1.00,-0.79,-8.08,5.94,30.51
107447,0.07,-0.29,1.01,-1.85,-6.41,7.04,30.41
107457,0.03,-0.30,1.05,-3.05,-9.18,6.63,30.41
107467,0.01,-0.32,1.05,-3.04,-10.38,4.72,30.37
107477,0.00,-0.32,1.07,-4.41,-10.41,1.77,30.46
107487,0.02,-0.32,1.03,-3.73,-9.50,0.61,30.46
107497,0.04,-0.32,1.01,-3.07,-7.15,0.38,30.37
107507,0.04,-0.31,1.01,-3.08,-4.23,1.24,30.46
107517,0.05,-0.31,1.01,-2.35,-2.52,2.38,30.46
107527,0.03,-0.32,1.02,-0.73,-1.59,2.99,30.37
107537,0.02,-0.32,1.01,1.86,-0.26,3.10,30.41
107547,0.03,-0.32,1.00,1.54,2.63,1.68,30.41
107557,0.02,-0.31,1.01,-0.05,0.46,0.14,30.41
107567,0.01,-0.30,1.02,-0.35,-3.60,-0.87,30.32
107577,0.03,-0.30,1.01,-0.05,-6.64,-1.22,30.41
107587,0.06,-0.30,0.99,0.82,-6.41,-0.40,30.41
107597,0.08,-0.30,0.99,1.37,-3.45,0.85,30.37
107607,0.08,-0.30,1.03,1.82,-1.51,2.06,30.46
107617,0.07,-0.32,1.05,2.58,0.52,1.85,30.37
107627,0.06,-0.30,1.05,2.72,0.78,1.10,30.46
107637,0.06,-0.32,1.04,2.63,0.49,-0.27,30.46
107647,0.07,-0.30,1.05,0.20,1.66,-1.22,30.37
107657,0.07,-0.27,1.06,-1.18,0.70,-1.56,30.41
107667,0.07,-0.28,1.07,-2.43,-1.33,-2.31,30.41
107677,0.06,-0.29,1.06,-2.31,-0.93,-3.15,30.32
107687,0.08,-0.30,1.04,-1.51,1.10,-4.00,30.46
107697,0.07,-0.29,1.05,-1.11,3.22,-3.97,30.51
107707,0.08,-0.29,1.03,-0.70,5.51,-4.06,30.41
107717,0.09,-0.28,1.03,-1.39,4.53,-3.89,30.37
107727,0.07,-0.29,1.01,-2.76,0.47,-4.76,30.46
107737,0.05,-0.28,1.03,-3.94,-2.66,-7.63,30.46
107747,0.05,-0.29,1.02,-3.31,-3.13,-11.50,30.46
107757,0.06,-0.29,1.03,-2.95,-2.78,-14.49,30.37
107767,0.08,-0.30,1.02,-0.98,-1.13,-16.96,30.41
107777,0.08,-0.32,1.04,2.24,-0.29,-18.95,30.51
107787,0.06,-0.30,1.02,5.42,1.73,-20.00,30.51
107797,0.06,-0.29,1.04,10.26,-0.79,-19.68,30.51
107807,0.04,-0.24,0.99,8.73,-3.86,-22.00,30.41
107817,0.05,-0.19,0.97,8.38,-8.11,-17.36,30.37
107827,0.05,-0.18,0.97,7.13,-15.04,-12.24,30.27
107837,0.06,-0.19,0.95,6.70,-23.25,-5.76,30.37
107847,0.06,-0.21,0.92,2.41,-32.00,-0.47,30.46
107857,0.05,-0.21,0.95,-2.15,-38.55,2.14,30.46
107867,0.05,-0.24,1.02,-3.05,-43.89,1.54,30.46
107877,0.09,-0.27,1.04,-1.74,-41.27,1.36,30.41
107887,0.14,-0.30,1.04,1.40,-34.90,0.17,30.51
107897,0.15,-0.32,1.05,2.58,-22.34,-1.07,30.41
107907,0.13,-0.31,1.09,0.78,-17.63,-2.37,30.41
107917,0.14,-0.30,1.07,-2.20,-12.41,-4.58,30.41
107927,0.13,-0.31,1.08,-4.09,-12.93,-7.91,30.41
107937,0.13,-0.31,1.04,-5.73,-14.31,-10.58,30.37
107947,0.17,-0.31,0.99,-7.39,-9.56,-12.21,30.37
107957,0.18,-0.29,1.05,-8.60,-2.82,-11.31,30.46
107967,0.19,-0.29,1.03,-7.25,2.76,-10.79,30.37
107977,0.17,-0.30,1.05,-4.56,7.95,-10.58,30.37
107987,0.21,-0.30,1.06,-8.18,9.98,-12.41,30.41
107997,0.17,-0.32,1.09,-7.31,5.40,-14.14,30.41
108007,0.17,-0.32,1.06,-9.21,7.21,-15.79,30.32
108017,0.17,-0.31,1.06,-9.60,4.38,-16.96,30.51
108027,0.19,-0.30,1.03,-9.30,7.30,-16.58,30.41
108037,0.17,-0.31,1.00,-8.40,6.53,-15.24,30.46
108047,0.17,-0.29,1.06,-9.53,14.11,-14.79,30.37
108057,0.16,-0.30,1.04,-8.99,16.53,-14.26,30.37
108067,0.15,-0.30,1.06,-11.34,16.29,-14.87,30.46
108077,0.14,-0.28,1.04,-12.31,13.77,-16.11,30.37
108087,0.14,-0.29,1.04,-13.60,13.48,-18.46,30.37
108097,0.14,-0.27,1.03,-12.44,15.42,-19.02,30.46
108107,0.11,-0.27,1.04,-12.60,16.17,-18.63,30.41
108117,0.13,-0.27,1.01,-12.92,16.03,-17.98,30.51
108127,0.15,-0.28,1.01,-11.77,17.63,-17.02,30.41
108137,0.14,-0.28,0.98,-10.72,16.87,-16.14,30.41
108147,0.13,-0.30,1.03,-8.02,12.17,-13.02,30.41
108157,0.03,-0.22,0.99,-6.34,10.14,-7.40,30.46
108167,0.05,-0.28,1.00,-9.45,16.35,-6.05,30.46
108177,0.03,-0.29,1.00,-8.76,14.98,-8.98,30.55
108187,0.09,-0.32,1.01,-6.32,14.34,-14.58,30.37
108197,0.09,-0.30,1.01,-1.10,2.41,-15.60,30.46
108207,0.09,-0.25,1.00,0.35,2.31,-12.67,30.46
108217,0.08,-0.27,1.00,1.30,0.21,-7.73,30.41
108227,0.08,-0.27,1.00,-0.34,-0.75,-4.12,30.41
108237,0.06,-0.29,1.02,-0.23,-1.48,-2.56,30.41
108247,0.04,-0.27,1.04,-2.90,-2.69,-0.98,30.41
108257,0.03,-0.28,1.05,-3.77,-3.69,0.03,30.46
108267,0.03,-0.29,1.06,-5.69,-5.11,-0.15,30.32
108277,0.03,-0.32,1.05,-4.46,-6.03,0.09,30.46
108287,0.00,-0.31,1.06,-5.39,-6.09,-0.89,30.37
108297,0.00,-0.30,1.03,-5.48,-1.97,-1.47,30.46
108307,0.02,-0.29,1.01,-6.14,0.49,-1.97,30.37
108317,0.04,-0.29,1.01,-8.69,1.19,-2.52,30.46
108327,0.04,-0.30,1.01,-8.60,-0.08,-2.14,30.46
108337,0.04,-0.31,1.01,-9.02,2.52,-2.02,30.41
108347,0.05,-0.32,1.02,-9.42,5.79,-2.29,30.51
108357,0.03,-0.33,1.03,-10.03,8.37,-3.51,30.41
108367,0.03,-0.32,1.02,-11.31,9.59,-4.67,30.32
108377,0.04,-0.33,1.02,-12.08,13.04,-6.03,30.51
108387,0.04,-0.33,1.06,-14.23,16.27,-7.86,30.46
108397,0.05,-0.34,1.04,-13.10,19.19,-10.21,30.46
108407,0.05,-0.36,1.03,-12.47,18.98,-13.24,30.37
108417,0.05,-0.36,1.03,-12.29,19.13,-15.36,30.37
108427,0.08,-0.36,1.05,-12.44,17.92,-16.64,30.46
108437,0.08,-0.37,1.04,-12.67,15.42,-17.01,30.37
108447,0.12,-0.38,1.02,-8.85,18.31,-15.60,30.46
108457,0.12,-0.36,1.02,-8.15,18.64,-12.85,30.41
108467,0.13,-0.35,1.01,-6.87,18.15,-9.97,30.41
108477,0.09,-0.36,1.00,-5.71,18.17,-8.50,30.41
108487,0.07,-0.34,1.01,-4.18,19.16,-8.52,30.41
108497,0.05,-0.34,1.01,-2.89,18.46,-9.62,30.41
108507,0.04,-0.33,1.02,-2.26,16.11,-11.60,30.41
108517,0.05,-0.33,1.00,-0.99,15.83,-14.02,30.37
108527,0.06,-0.30,0.99,-0.35,14.70,-14.99,30.46
108537,0.05,-0.29,0.99,0.35,12.70,-14.70,30.37
108547,0.05,-0.28,0.98,1.33,12.20,-13.13,30.46
108557,0.04,-0.29,0.97,2.95,10.89,-10.90,30.37
108567,0.02,-0.27,0.96,4.53,10.20,-6.55,30.37
108577,0.03,-0.06,0.71,-8.50,28.41,2.41,30.37
108587,-0.04,-0.21,0.95,-6.09,26.61,10.81,30.41
108597,-0.02,-0.28,0.98,-6.41,19.27,14.70,30.41
108607,-0.05,-0.31,1.00,-7.73,12.96,13.36,30.51
108617,-0.04,-0.33,1.03,-6.40,2.50,11.97,30.41
108627,-0.03,-0.34,1.06,-2.90,-5.30,10.11,30.51
108637,-0.00,-0.33,1.03,-0.70,-7.40,11.11,30.41
108647,0.04,-0.31,0.98,0.60,-3.45,12.82,30.37
108657,0.07,-0.29,0.96,-0.79,3.59,14.98,30.55
108667,0.11,-0.29,0.93,-4.37,10.06,16.49,30.46
108677,0.15,-0.28,0.93,-9.68,15.83,16.09,30.46
108687,0.15,-0.30,0.94,-15.28,19.89,13.65,30.37
