Timestamp,Acce_X,Acce_Y,Acce_Z,Gyro_X,Gyro_Y,Gyro_Z,Temp
41307,-0.75,-0.31,0.91,-1.53,1.92,101.66,31.07
41317,-0.72,-0.34,0.92,-2.93,-2.41,105.62,31.02
41327,-0.69,-0.37,0.90,-6.60,-5.42,108.69,31.02
41337,-0.68,-0.38,0.91,-10.85,-7.10,111.07,31.12
41347,-0.67,-0.42,0.92,-11.22,-13.51,113.28,31.12
41357,-0.66,-0.45,0.89,-12.31,-16.99,118.00,31.02
41367,-0.64,-0.47,0.87,-11.15,-17.27,122.18,31.12
41377,-0.64,-0.51,0.84,-8.66,-17.28,128.72,31.07
41387,-0.63,-0.54,0.81,-7.69,-17.36,136.27,31.07
41397,-0.59,-0.53,0.78,-7.27,-18.60,143.37,31.07
41407,-0.54,-0.52,0.75,-7.44,-19.30,150.98,31.07
41417,-0.46,-0.48,0.72,-10.14,-16.93,154.17,31.07
41427,-0.40,-0.49,0.70,-13.28,-15.77,153.13,31.02
41437,-0.37,-0.51,0.70,-20.23,-12.89,150.90,31.07
41447,-0.37,-0.52,0.72,-26.78,-11.66,149.27,31.12
41457,-0.40,-0.55,0.78,-35.04,-11.97,148.23,31.02
41467,-0.43,-0.57,0.83,-39.33,-12.26,150.64,31.12
41477,-0.44,-0.58,0.88,-38.79,-8.40,156.87,31.02
41487,-0.43,-0.61,0.93,-36.29,-5.30,163.05,31.12
41497,-0.40,-0.64,0.95,-32.76,-5.05,168.32,31.07
41507,-0.38,-0.67,1.00,-32.46,-4.99,168.69,31.07
41517,-0.41,-0.68,1.04,-30.61,-13.01,169.66,31.17
41527,-0.43,-0.65,0.99,-28.08,-18.53,173.82,31.07
41537,-0.41,-0.64,0.93,-25.98,-18.11,182.75,30.88
41547,-0.38,-0.65,0.92,-30.14,-14.12,191.83,31.07
41557,-0.35,-0.68,0.98,-33.95,-12.49,200.15,31.02
41567,-0.33,-0.73,1.04,-36.55,-18.44,203.07,31.02
41577,-0.31,-0.75,1.05,-39.73,-25.28,203.56,31.02
41587,-0.31,-0.77,1.07,-37.30,-36.73,207.92,31.12
41597,-0.25,-0.77,1.06,-32.43,-46.44,213.24,31.02
41607,-0.16,-0.77,1.00,-27.66,-48.56,218.31,31.12
41617,-0.05,-0.80,0.98,-27.91,-45.33,218.75,31.07
41627,-0.01,-0.82,0.99,-30.08,-45.68,213.39,31.07
41637,0.01,-0.79,1.01,-31.89,-44.95,208.69,31.17
41647,0.03,-0.80,1.01,-29.73,-51.77,205.37,30.98
41657,0.07,-0.78,0.96,-26.64,-56.23,200.35,31.07
41667,0.06,-0.77,0.91,-27.54,-63.04,195.60,31.07
41677,0.08,-0.74,0.87,-27.39,-70.95,193.63,30.93
41687,0.11,-0.73,0.80,-27.74,-74.72,192.92,31.02
41697,0.13,-0.71,0.76,-26.24,-80.60,194.66,31.02
41707,0.18,-0.68,0.74,-26.70,-85.05,194.78,31.02
41717,0.23,-0.65,0.70,-29.31,-89.85,194.00,31.12
41727,0.30,-0.62,0.66,-33.10,-89.48,194.53,31.02
41737,0.38,-0.63,0.67,-36.41,-82.03,191.63,31.02
41747,0.44,-0.63,0.69,-40.29,-68.32,183.79,30.98
41757,0.48,-0.62,0.74,-42.82,-51.50,175.48,31.17
41767,0.48,-0.61,0.84,-45.04,-34.20,165.39,31.07
41777,0.41,-0.59,0.94,-45.15,-24.43,156.75,31.07
41787,0.34,-0.58,1.04,-40.64,-22.20,151.92,30.98
41797,0.31,-0.57,1.07,-33.76,-21.47,149.63,31.17
41807,0.30,-0.56,1.06,-25.66,-18.98,146.72,31.02
41817,0.30,-0.53,1.02,-22.93,-16.17,142.85,31.12
41827,0.29,-0.50,0.99,-23.04,-13.66,141.33,31.12
41837,0.26,-0.48,1.00,-25.71,-9.68,140.03,31.02
41847,0.24,-0.47,1.01,-28.41,-10.17,139.34,31.12
41857,0.24,-0.46,1.00,-29.40,-11.36,139.94,30.98
41867,0.26,-0.43,1.00,-31.40,-9.76,139.37,31.07
41877,0.30,-0.40,1.02,-34.53,-5.94,133.34,30.98
41887,0.29,-0.39,1.04,-38.79,-2.75,130.08,31.07
41897,0.29,-0.44,1.09,-41.97,1.66,123.83,31.07
41907,0.25,-0.42,1.17,-44.05,4.75,116.79,31.02
41917,0.20,-0.41,1.23,-44.43,4.56,112.98,31.02
41927,0.17,-0.44,1.26,-41.91,2.95,111.68,31.02
41937,0.16,-0.44,1.26,-35.95,7.01,112.37,31.02
41947,0.20,-0.46,1.26,-30.21,16.47,111.91,31.02
41957,0.25,-0.44,1.24,-25.21,31.97,105.31,31.12
41967,0.24,-0.40,1.21,-23.44,40.87,95.60,31.07
41977,0.19,-0.39,1.21,-23.56,43.10,83.94,30.98
41987,0.10,-0.38,1.17,-25.74,35.65,74.58,31.07
41997,0.06,-0.35,1.13,-31.08,30.35,68.23,31.07
42007,0.04,-0.34,1.15,-34.49,29.76,62.06,31.07
42017,-0.01,-0.35,1.19,-30.09,26.90,57.79,30.98
42027,-0.02,-0.37,1.16,-20.34,26.06,52.31,31.12
42037,-0.04,-0.37,1.14,-11.28,35.63,46.26,31.02
42047,-0.08,-0.33,1.09,-2.63,34.55,32.50,30.93
42057,-0.19,-0.25,0.99,-0.21,30.03,18.92,31.02
42067,-0.31,-0.19,0.92,-0.90,15.33,13.68,31.12
42077,-0.37,-0.17,0.87,-9.68,6.50,14.47,31.07
42087,-0.39,-0.17,0.91,-20.52,6.53,20.75,31.07
42097,-0.40,-0.19,1.01,-25.63,8.47,30.61,30.98
42107,-0.36,-0.26,1.06,-23.01,14.95,39.37,31.07
42117,-0.31,-0.33,1.11,-16.08,21.97,43.79,30.98
42127,-0.30,-0.33,1.19,-7.04,26.98,43.08,31.02
42137,-0.34,-0.30,1.18,0.82,20.64,43.31,31.02
42147,-0.35,-0.26,1.13,2.53,10.75,44.43,31.02
42157,-0.37,-0.25,1.09,-1.18,-4.32,45.92,31.12
42167,-0.34,-0.24,1.07,-8.82,-15.22,54.18,31.02
42177,-0.27,-0.27,1.11,-13.94,-24.53,63.88,31.12
42187,-0.19,-0.32,1.14,-13.44,-27.71,71.98,30.98
42197,-0.10,-0.35,1.16,-8.29,-33.50,78.47,31.07
42207,-0.05,-0.38,1.14,-3.57,-44.11,82.82,31.07
42217,0.04,-0.41,1.14,4.02,-45.48,88.49,31.07
42227,0.16,-0.42,1.09,6.44,-48.06,86.18,30.98
42237,0.23,-0.40,1.06,11.65,-42.72,82.96,31.07
42247,0.21,-0.37,1.01,23.13,-47.33,86.09,30.93
42257,0.23,-0.38,0.86,15.04,-61.44,86.38,31.12
42267,0.21,-0.30,0.89,13.77,-75.88,93.24,31.02
42277,0.47,-0.36,0.84,-2.73,-60.09,86.49,31.02
42287,0.68,-0.39,0.99,-4.55,-23.98,72.93,31.02
42297,0.62,-0.46,1.13,1.08,6.24,58.93,31.02
42307,0.48,-0.49,1.21,18.02,9.10,45.82,31.07
42317,0.40,-0.46,1.19,35.62,-8.29,33.05,31.07
42327,0.45,-0.40,1.15,40.08,-19.31,13.69,31.07
42337,0.50,-0.32,1.15,44.29,-8.00,-8.79,30.98
42347,0.48,-0.26,1.11,47.42,18.05,-27.54,31.02
42357,0.38,-0.24,1.12,52.92,49.73,-40.50,31.07
42367,0.21,-0.21,1.14,57.94,65.91,-49.40,31.02
42377,-0.01,-0.15,1.14,59.53,59.66,-55.50,31.02
42387,-0.15,-0.10,1.10,56.23,45.56,-54.96,31.12
42397,-0.27,-0.08,1.14,52.08,27.02,-49.24,31.12
42407,-0.28,-0.04,1.12,48.63,16.18,-43.28,31.02
42417,-0.26,-0.01,1.07,41.80,15.39,-36.81,31.02
42427,-0.24,0.02,1.07,36.09,20.96,-31.73,31.07
42437,-0.22,0.03,1.07,32.15,24.11,-27.66,31.07
42447,-0.23,0.04,1.07,29.15,22.14,-25.66,31.07
42457,-0.22,0.02,1.07,28.84,16.35,-24.76,31.07
42467,-0.23,0.01,1.06,27.28,13.40,-25.45,30.98
42477,-0.24,-0.01,1.07,25.31,11.65,-25.10,31.02
42487,-0.26,0.00,1.06,24.64,5.27,-23.54,31.02
42497,-0.27,0.02,1.04,22.58,-4.41,-20.96,31.12
42507,-0.24,0.02,1.01,19.45,-12.26,-19.30,31.02
42517,-0.20,0.03,0.98,14.15,-13.74,-18.29,31.02
42527,-0.15,0.02,0.96,8.26,-13.08,-19.11,31.12
42537,-0.12,0.01,0.94,3.71,-6.00,-20.90,31.02
42547,-0.11,-0.01,0.95,2.05,2.73,-23.83,30.98
42557,-0.12,0.00,0.94,1.25,8.81,-25.95,31.07
42567,-0.17,-0.01,0.97,0.29,12.76,-25.74,31.07
42577,-0.20,-0.01,1.00,-0.37,7.59,-24.55,31.07
42587,-0.23,-0.01,1.03,-1.59,-1.88,-23.31,31.07
42597,-0.20,-0.02,1.03,-2.06,-6.12,-22.23,31.02
42607,-0.19,-0.00,1.02,0.08,-8.85,-21.10,31.02
42617,-0.16,-0.00,0.98,-1.48,-7.15,-20.92,31.02
42627,-0.15,-0.00,0.97,-4.09,-6.73,-20.93,30.93
42637,-0.13,-0.02,1.00,-6.43,-6.92,-21.85,30.93
42647,-0.09,-0.02,1.00,-6.40,-8.84,-22.38,31.02
42657,-0.05,-0.03,0.98,-8.52,-4.85,-26.05,31.07
42667,-0.05,-0.02,1.00,-10.78,-0.76,-29.69,30.98
42677,-0.04,-0.01,1.00,-14.12,1.60,-32.96,31.07
42687,-0.04,-0.04,1.03,-14.90,7.42,-35.80,31.07
42697,-0.08,-0.06,1.10,-12.79,14.26,-34.73,31.12
42707,-0.10,-0.06,1.15,-8.64,17.62,-29.18,31.02
42717,-0.09,-0.06,1.18,-4.73,19.47,-23.59,31.02
42727,-0.05,-0.10,1.20,-2.14,21.07,-22.08,31.02
42737,-0.01,-0.10,1.19,0.21,23.01,-23.51,31.02
42747,0.01,-0.10,1.18,1.71,21.30,-25.71,31.12
42757,0.03,-0.11,1.16,2.53,17.56,-29.89,30.93
42767,0.06,-0.11,1.13,4.14,15.94,-34.49,30.98
42777,0.10,-0.11,1.10,6.20,14.98,-40.17,31.17
42787,0.11,-0.10,1.04,7.24,17.82,-47.10,31.07
42797,0.11,-0.11,1.03,4.50,23.13,-52.40,30.98
42807,0.10,-0.13,1.05,4.26,25.54,-56.66,31.07
42817,0.08,-0.16,1.10,4.47,26.75,-60.63,31.07
42827,0.05,-0.19,1.13,7.31,24.27,-65.44,31.02
42837,0.01,-0.19,1.14,13.53,24.44,-68.20,31.02
42847,-0.04,-0.17,1.12,17.30,26.55,-66.12,31.02
42857,-0.07,-0.15,1.10,18.76,25.62,-61.94,31.02
42867,-0.07,-0.15,1.09,18.34,22.93,-58.49,31.02
42877,-0.06,-0.15,1.09,19.56,17.59,-56.08,31.02
42887,-0.01,-0.15,1.06,18.32,15.77,-56.69,30.98
42897,0.02,-0.16,1.04,17.51,13.69,-59.45,30.98
42907,0.05,-0.17,1.03,13.73,12.67,-65.60,30.98
42917,0.05,-0.17,1.02,11.63,10.90,-72.73,31.02
42927,0.02,-0.16,1.03,9.27,12.41,-76.98,30.98
42937,0.00,-0.17,1.06,9.05,17.91,-79.85,31.02
42947,-0.01,-0.19,1.10,9.94,24.23,-84.44,31.12
42957,-0.06,-0.20,1.11,12.87,29.76,-87.13,31.12
42967,-0.12,-0.20,1.17,17.07,31.51,-86.31,31.02
42977,-0.16,-0.22,1.20,21.34,27.25,-84.73,31.12
42987,-0.15,-0.22,1.20,25.76,21.05,-83.57,31.12
42997,-0.12,-0.23,1.16,28.99,15.98,-83.94,30.98
43007,-0.09,-0.23,1.14,32.27,16.18,-85.77,31.07
43017,-0.09,-0.23,1.08,35.83,18.79,-86.37,31.07
43027,-0.06,-0.22,1.03,36.67,24.29,-87.62,30.98
43037,-0.06,-0.22,1.00,35.40,29.37,-88.53,30.98
43047,-0.02,-0.22,0.99,33.82,34.32,-89.68,31.02
43057,-0.01,-0.24,1.00,29.76,37.42,-94.46,31.12
43067,-0.02,-0.27,1.04,27.18,32.93,-102.06,31.12
43077,-0.07,-0.30,1.07,27.08,28.89,-108.35,31.02
43087,-0.10,-0.30,1.08,30.37,28.50,-110.46,31.12
43097,-0.13,-0.30,1.06,34.82,30.66,-107.59,31.12
43107,-0.11,-0.30,1.03,38.95,37.80,-103.89,31.02
43117,-0.11,-0.32,1.03,40.41,43.80,-101.65,30.98
43127,-0.10,-0.35,1.03,41.16,43.68,-101.91,30.88
43137,-0.10,-0.39,1.03,41.25,38.00,-104.03,30.98
43147,-0.08,-0.38,1.00,42.92,31.25,-107.07,31.07
43157,-0.06,-0.39,1.00,43.24,28.64,-111.76,31.17
43167,-0.06,-0.41,1.01,42.90,26.96,-119.30,31.02
43177,-0.09,-0.42,1.01,43.30,23.37,-126.50,31.02
43187,-0.16,-0.42,1.01,45.62,19.15,-129.79,31.02
43197,-0.16,-0.44,0.99,48.02,17.10,-131.77,31.02
43207,-0.18,-0.44,0.97,48.96,13.33,-135.39,31.02
43217,-0.23,-0.43,0.93,48.23,11.02,-137.40,31.02
43227,-0.24,-0.42,0.92,47.25,7.91,-138.85,31.07
43237,-0.26,-0.42,0.89,47.11,3.60,-139.13,31.07
43247,-0.25,-0.42,0.87,47.47,3.30,-138.70,31.07
43257,-0.25,-0.42,0.84,46.89,4.35,-138.38,31.07
43267,-0.24,-0.44,0.85,44.37,4.72,-140.23,31.02
43277,-0.26,-0.45,0.86,42.08,4.44,-143.92,31.07
43287,-0.27,-0.45,0.85,41.69,5.85,-147.10,31.02
43297,-0.29,-0.44,0.86,40.20,7.53,-150.56,31.02
43307,-0.33,-0.44,0.87,39.16,4.08,-155.19,31.02
43317,-0.39,-0.43,0.88,35.83,1.50,-157.39,31.12
43327,-0.42,-0.42,0.88,34.02,1.57,-154.98,31.02
43337,-0.44,-0.42,0.90,35.25,1.05,-149.91,31.02
43347,-0.43,-0.42,0.90,35.56,5.45,-146.34,31.07
43357,-0.45,-0.42,0.92,35.25,8.12,-143.51,30.98
43367,-0.46,-0.42,0.93,33.36,6.64,-140.81,30.88
43377,-0.49,-0.42,0.96,32.58,-1.34,-138.73,30.98
43387,-0.48,-0.42,0.94,33.73,-8.84,-138.41,31.07
43397,-0.45,-0.39,0.89,36.52,-9.02,-136.87,30.93
43407,-0.42,-0.38,0.84,35.44,-0.14,-134.69,30.93
43417,-0.42,-0.38,0.84,33.16,8.24,-133.08,31.02
43427,-0.42,-0.38,0.85,29.34,13.86,-132.73,31.02
43437,-0.43,-0.39,0.89,25.89,11.37,-135.28,31.02
43447,-0.47,-0.40,0.90,24.70,3.07,-137.24,30.93
43457,-0.49,-0.40,0.89,26.40,0.84,-134.64,31.02
43467,-0.48,-0.40,0.87,28.75,6.52,-127.39,31.02
43477,-0.43,-0.40,0.85,28.12,18.00,-119.95,30.98
43487,-0.40,-0.38,0.88,24.89,26.60,-116.69,30.98
43497,-0.40,-0.38,0.90,21.42,22.18,-118.38,30.98
43507,-0.42,-0.38,0.91,18.98,10.78,-120.92,30.98
43517,-0.42,-0.38,0.92,18.81,4.76,-121.65,31.07
43527,-0.41,-0.38,0.93,18.73,1.50,-123.42,30.93
43537,-0.42,-0.40,0.93,17.60,3.57,-127.68,31.07
43547,-0.45,-0.38,0.92,17.69,8.92,-129.10,30.93
43557,-0.51,-0.36,0.94,17.37,13.77,-129.51,30.93
43567,-0.59,-0.36,0.97,17.74,12.06,-130.37,31.02
43577,-0.66,-0.34,0.96,17.80,9.15,-127.42,31.02
43587,-0.72,-0.32,0.99,16.79,4.43,-121.39,30.93
43597,-0.75,-0.30,1.02,17.85,-4.17,-115.80,31.02
43607,-0.76,-0.30,0.99,18.55,-12.82,-110.47,31.02
43617,-0.74,-0.29,0.95,21.05,-16.31,-103.68,31.17
43627,-0.71,-0.28,0.89,21.53,-15.65,-97.40,31.07
43637,-0.67,-0.26,0.85,18.21,-8.96,-92.53,30.98
43647,-0.64,-0.25,0.86,13.91,-1.91,-91.33,30.98
43657,-0.68,-0.23,0.86,8.92,-0.09,-91.77,30.98
43667,-0.74,-0.23,0.89,4.90,-3.65,-91.48,31.07
43677,-0.80,-0.21,0.90,2.43,-8.02,-87.02,31.07
43687,-0.82,-0.20,0.91,1.15,-10.37,-79.82,31.12
43697,-0.80,-0.20,0.95,-1.39,-9.08,-72.29,30.93
43707,-0.81,-0.21,0.99,-0.56,-8.53,-65.97,31.02
43717,-0.82,-0.21,0.99,0.47,-8.69,-58.84,31.02
43727,-0.83,-0.23,0.99,4.09,-9.82,-51.22,31.02
43737,-0.83,-0.21,0.97,8.24,-11.91,-42.14,31.02
43747,-0.77,-0.19,0.93,9.50,-8.78,-33.15,30.98
43757,-0.73,-0.18,0.90,7.37,-3.85,-25.89,30.98
43767,-0.67,-0.17,0.90,4.63,-1.59,-20.38,30.98
43777,-0.62,-0.18,0.90,0.98,-1.79,-18.17,30.88
43787,-0.58,-0.19,0.89,-0.84,-3.98,-16.64,30.98
43797,-0.55,-0.19,0.90,-3.02,-3.97,-14.70,30.98
43807,-0.54,-0.19,0.92,-5.11,-5.39,-13.39,31.07
43817,-0.54,-0.21,0.94,-5.94,-7.54,-11.34,30.93
43827,-0.52,-0.22,0.93,-5.60,-8.55,-5.39,31.02
43837,-0.46,-0.21,0.94,-4.20,-7.34,2.15,31.02
43847,-0.39,-0.22,0.95,-2.73,-6.89,6.55,31.12
43857,-0.31,-0.22,0.96,-3.19,-7.40,5.98,31.12
43867,-0.26,-0.23,0.95,-4.95,-7.95,1.98,31.02
43877,-0.22,-0.23,0.95,-6.46,-7.82,-2.09,31.02
43887,-0.21,-0.22,0.97,-7.88,-6.55,-6.98,30.98
43897,-0.21,-0.22,0.98,-8.00,-6.76,-12.17,30.98
43907,-0.22,-0.23,1.00,-8.06,-5.53,-16.18,30.98
43917,-0.26,-0.23,1.01,-7.02,-5.98,-17.21,30.98
43927,-0.27,-0.22,1.02,-5.28,-6.47,-15.10,30.98
43937,-0.27,-0.22,1.01,-3.94,-7.10,-11.89,31.07
43947,-0.25,-0.21,1.00,-3.91,-7.56,-10.00,31.02
43957,-0.23,-0.20,1.00,-3.21,-8.27,-9.34,31.02
43967,-0.22,-0.21,0.98,-3.68,-7.92,-9.40,31.02
43977,-0.21,-0.20,0.98,-4.20,-4.02,-9.69,31.02
43987,-0.22,-0.20,1.01,-4.40,-2.08,-9.62,31.12
43997,-0.23,-0.21,1.00,-4.46,-1.25,-9.83,31.12
44007,-0.23,-0.20,1.00,-5.08,-1.77,-10.63,31.02
44017,-0.23,-0.19,1.00,-6.18,-3.91,-11.76,30.98
44027,-0.22,-0.19,1.00,-7.07,-4.40,-12.78,30.98
44037,-0.23,-0.20,1.02,-7.53,-2.44,-13.15,30.88
44047,-0.25,-0.21,1.05,-6.90,-1.76,-13.42,31.07
44057,-0.27,-0.21,1.06,-5.45,-3.54,-13.73,30.98
44067,-0.28,-0.22,1.07,-3.10,-6.84,-14.20,30.98
44077,-0.30,-0.20,1.05,-2.08,-7.94,-13.74,31.02
44087,-0.31,-0.18,1.02,0.55,-7.76,-10.98,30.93
44097,-0.30,-0.18,1.00,-0.05,-1.69,-6.70,30.93
44107,-0.30,-0.19,1.00,-1.16,1.71,-2.32,30.93
44117,-0.30,-0.18,1.00,-3.97,1.19,0.14,31.02
44127,-0.29,-0.18,1.02,-5.76,-2.90,1.53,31.02
44137,-0.28,-0.20,1.03,-6.08,-8.20,2.21,30.98
44147,-0.25,-0.19,1.01,-6.38,-11.83,1.94,31.07
44157,-0.22,-0.20,1.00,-7.10,-12.79,0.76,30.98
44167,-0.20,-0.20,0.98,-8.92,-10.18,0.02,30.88
44177,-0.21,-0.20,1.01,-9.82,-9.15,-0.17,31.02
44187,-0.20,-0.21,1.02,-9.36,-9.86,0.32,30.98
44197,-0.19,-0.21,1.01,-9.19,-9.44,0.17,31.02
44207,-0.19,-0.21,1.03,-7.01,-10.05,0.82,31.02
44217,-0.20,-0.21,1.05,-4.85,-11.53,1.77,31.02
44227,-0.19,-0.21,1.04,-2.92,-12.63,2.38,31.02
44237,-0.18,-0.21,1.02,-1.40,-12.11,3.11,31.02
44247,-0.16,-0.22,1.02,0.06,-10.17,4.21,31.02
44257,-0.14,-0.22,0.99,0.82,-6.81,5.73,31.07
44267,-0.11,-0.22,0.98,1.07,-3.76,6.61,31.07
44277,-0.09,-0.21,0.98,0.95,-3.08,6.11,31.07
44287,-0.06,-0.21,0.96,-0.75,-2.76,4.02,30.98
44297,-0.05,-0.20,0.97,-2.02,-3.21,1.36,30.98
44307,-0.04,-0.21,0.96,-1.94,-2.95,-1.19,31.12
44317,-0.06,-0.20,0.98,-2.92,-2.05,-3.37,31.02
44327,-0.08,-0.19,0.99,-2.89,-2.55,-4.85,30.93
44337,-0.09,-0.19,0.99,-4.44,-2.87,-7.44,31.02
44347,-0.12,-0.19,0.99,-5.98,-4.20,-9.57,31.02
44357,-0.13,-0.18,0.99,-7.53,-4.67,-10.37,30.93
44367,-0.16,-0.18,1.00,-9.27,-4.02,-10.26,31.02
44377,-0.17,-0.18,1.03,-10.24,-3.86,-10.37,30.88
44387,-0.17,-0.18,1.04,-10.82,-5.19,-11.31,30.98
44397,-0.18,-0.19,1.04,-11.50,-5.27,-12.11,30.98
44407,-0.19,-0.19,1.05,-11.05,-4.05,-11.59,30.98
44417,-0.20,-0.19,1.06,-9.71,-1.86,-10.37,30.88
44427,-0.20,-0.20,1.07,-8.55,0.05,-8.99,30.98
44437,-0.22,-0.20,1.08,-7.59,0.34,-8.37,31.02
44447,-0.23,-0.19,1.08,-5.82,0.53,-6.49,31.12
44457,-0.23,-0.20,1.08,-4.11,0.89,-3.57,30.93
44467,-0.21,-0.20,1.08,-2.56,1.59,-1.62,31.02
44477,-0.19,-0.21,1.08,-1.77,3.60,-0.46,30.93
44487,-0.17,-0.20,1.06,-1.50,3.80,-0.34,31.02
44497,-0.16,-0.20,1.06,-1.63,2.82,-1.88,31.07
44507,-0.15,-0.21,1.06,-1.73,1.01,-4.00,30.98
44517,-0.15,-0.21,1.06,-1.13,0.18,-5.50,31.07
44527,-0.16,-0.21,1.07,-0.53,0.09,-6.96,30.98
44537,-0.16,-0.21,1.06,1.21,0.69,-6.89,30.98
44547,-0.16,-0.21,1.05,1.88,3.54,-6.60,30.98
44557,-0.17,-0.21,1.02,2.46,4.84,-5.68,31.02
44567,-0.16,-0.20,1.01,1.76,5.86,-5.11,30.93
44577,-0.17,-0.20,1.00,0.79,5.82,-4.76,31.12
44587,-0.15,-0.19,0.99,0.15,6.14,-4.21,31.02
44597,-0.13,-0.20,1.00,-1.21,7.08,-5.16,31.02
44607,-0.11,-0.21,1.02,-1.60,6.44,-8.18,31.07
44617,-0.10,-0.22,1.02,-2.56,4.32,-12.00,30.98
44627,-0.09,-0.23,1.03,-1.95,6.38,-16.58,30.98
44637,-0.12,-0.24,1.04,-1.10,6.55,-19.30,30.98
44647,-0.13,-0.22,1.02,-1.16,9.13,-20.17,31.07
44657,-0.14,-0.22,1.02,-1.94,12.60,-19.54,31.02
44667,-0.15,-0.21,1.02,-0.66,13.31,-18.03,31.07
44677,-0.15,-0.21,1.01,0.89,14.47,-16.32,30.93
44687,-0.15,-0.22,1.01,1.45,11.31,-16.73,31.02
44697,-0.15,-0.21,1.02,1.21,6.55,-18.53,31.02
44707,-0.16,-0.21,1.02,1.30,1.16,-20.40,31.02
44717,-0.17,-0.20,1.01,1.30,-4.44,-21.68,31.02
44727,-0.17,-0.20,1.00,0.55,-5.79,-21.91,31.02
44737,-0.17,-0.21,1.00,0.21,-5.88,-21.88,30.98
44747,-0.18,-0.20,1.01,-1.15,-8.75,-22.24,30.98
44757,-0.20,-0.20,1.02,-2.11,-13.47,-22.41,30.98
44767,-0.21,-0.21,1.04,-2.02,-19.28,-21.04,30.98
44777,-0.18,-0.20,1.00,2.47,-21.34,-21.28,30.88
44787,-0.17,-0.19,0.97,-0.55,-13.97,-20.78,31.02
44797,-0.19,-0.17,0.98,-1.37,-6.84,-18.95,31.02
44807,-0.19,-0.17,1.00,-2.31,0.87,-15.80,31.02
44817,-0.21,-0.17,0.99,-3.13,6.44,-12.60,31.02
44827,-0.22,-0.18,0.99,-4.26,8.55,-9.02,31.02
44837,-0.22,-0.18,1.00,-3.92,5.53,-6.37,30.93
44847,-0.21,-0.17,1.00,-5.15,2.11,-5.16,31.02
44857,-0.21,-0.17,1.00,-6.44,-3.21,-4.70,31.02
44867,-0.21,-0.17,1.00,-8.05,-9.10,-3.98,30.93
44877,-0.19,-0.17,0.99,-8.43,-10.06,-2.18,30.98
44887,-0.17,-0.17,0.99,-9.51,-6.87,-0.90,30.98
44897,-0.15,-0.18,0.99,-9.92,1.08,1.28,30.98
44907,-0.15,-0.18,1.01,-9.68,8.96,3.86,30.98
44917,-0.16,-0.19,1.04,-7.76,15.37,5.88,30.98
44927,-0.17,-0.20,1.05,-5.42,16.52,7.19,30.98
44937,-0.17,-0.20,1.05,-4.00,12.98,7.68,30.98
44947,-0.16,-0.21,1.05,-3.54,8.63,6.72,30.93
44957,-0.14,-0.20,1.04,-4.41,5.60,4.21,31.02
44967,-0.13,-0.20,1.03,-5.94,3.24,1.65,31.02
44977,-0.14,-0.20,1.03,-6.67,2.93,-0.49,31.02
44987,-0.15,-0.21,1.05,-5.39,1.69,-1.19,30.93
44997,-0.16,-0.21,1.04,-4.24,2.78,-0.72,31.02
45007,-0.15,-0.21,1.04,-3.59,4.56,-0.46,31.02
45017,-0.16,-0.22,1.03,-4.44,5.59,-0.82,30.98
45027,-0.17,-0.22,1.02,-6.14,5.65,-0.95,30.98
45037,-0.18,-0.22,1.03,-7.77,4.49,-0.82,30.88
45047,-0.17,-0.23,1.03,-8.23,2.90,-0.92,31.07
45057,-0.18,-0.24,1.03,-9.02,2.46,-0.95,31.07
45067,-0.17,-0.25,1.05,-9.08,1.31,-0.93,30.98
45077,-0.18,-0.25,1.05,-10.09,1.10,-1.27,30.98
45087,-0.18,-0.26,1.04,-9.80,-1.24,-1.33,30.93
45097,-0.17,-0.26,1.05,-9.22,-2.00,-1.39,30.93
45107,-0.17,-0.26,1.03,-9.28,0.60,-1.15,30.93
45117,-0.18,-0.26,1.05,-8.60,2.96,-0.35,30.93
45127,-0.19,-0.27,1.06,-8.75,6.60,0.02,31.02
45137,-0.20,-0.26,1.07,-7.62,7.71,1.02,30.93
45147,-0.20,-0.25,1.07,-6.17,7.39,2.03,30.88
45157,-0.20,-0.25,1.05,-5.13,8.03,3.08,30.98
45167,-0.21,-0.25,1.03,-4.44,9.24,4.70,31.07
45177,-0.20,-0.24,1.02,-4.96,12.49,6.67,30.93
45187,-0.19,-0.24,1.01,-7.07,17.56,7.66,30.98
45197,-0.20,-0.24,1.03,-9.59,19.24,8.32,30.93
45207,-0.21,-0.24,1.07,-11.28,17.48,9.34,31.02
45217,-0.21,-0.23,1.07,-10.20,15.30,11.11,31.02
45227,-0.19,-0.24,1.07,-8.75,13.19,12.18,31.02
45237,-0.16,-0.23,1.06,-7.92,11.77,12.12,30.93
45247,-0.15,-0.21,1.04,-8.89,12.15,11.16,31.02
45257,-0.13,-0.23,1.06,-10.02,12.99,9.95,30.88
45267,-0.15,-0.25,1.07,-9.98,12.55,9.08,30.98
45277,-0.15,-0.24,1.07,-9.54,11.86,8.95,30.88
45287,-0.16,-0.25,1.08,-7.69,9.42,8.95,30.98
45297,-0.16,-0.26,1.10,-5.76,7.42,9.47,30.98
45307,-0.15,-0.25,1.09,-2.60,3.86,9.98,31.02
45317,-0.12,-0.25,1.07,-0.99,1.86,8.61,30.93
45327,-0.11,-0.24,1.04,-0.49,1.31,6.84,31.02
45337,-0.10,-0.24,1.02,-0.26,2.40,4.72,31.02
45347,-0.10,-0.22,1.00,-1.59,5.63,2.79,30.93
45357,-0.12,-0.22,0.98,-2.06,9.01,1.59,31.02
45367,-0.14,-0.22,1.01,-2.82,9.42,1.08,31.02
45377,-0.17,-0.23,1.02,-1.94,6.37,0.03,31.07
45387,-0.18,-0.23,1.02,-1.74,2.53,0.20,30.98
45397,-0.18,-0.23,1.01,-1.10,-0.75,0.56,30.98
45407,-0.16,-0.22,1.01,-0.93,-0.17,0.34,31.07
45417,-0.16,-0.22,1.01,-0.44,1.11,0.02,30.98
45427,-0.16,-0.22,1.01,-0.02,3.40,-0.24,30.98
45437,-0.17,-0.23,1.03,-0.35,1.76,-0.99,31.02
45447,-0.19,-0.23,1.03,0.79,-2.26,-2.08,31.02
45457,-0.19,-0.22,1.01,2.34,-2.75,-2.18,31.02
45467,-0.19,-0.21,0.99,2.64,0.58,-1.04,31.02
45477,-0.18,-0.20,0.97,2.03,3.34,0.08,31.02
45487,-0.18,-0.20,0.98,-0.67,3.62,0.43,30.93
45497,-0.18,-0.21,0.98,-1.65,0.69,-0.24,30.98
45507,-0.17,-0.22,0.97,-2.82,-1.60,-1.24,30.98
45517,-0.16,-0.22,0.99,-3.77,-3.19,-3.07,30.98
45527,-0.17,-0.22,1.00,-4.18,-3.37,-4.52,30.93
45537,-0.17,-0.21,1.00,-4.44,-0.79,-4.29,31.07
45547,-0.18,-0.22,1.01,-5.37,3.63,-3.91,30.88
45557,-0.19,-0.24,1.04,-4.58,5.27,-3.42,30.93
45567,-0.20,-0.24,1.05,-3.48,4.49,-2.93,30.93
45577,-0.21,-0.23,1.05,-1.73,3.10,-2.31,30.93
45587,-0.21,-0.23,1.04,-0.53,1.85,-1.89,30.93
45597,-0.19,-0.23,1.03,0.23,0.58,-1.95,31.02
45607,-0.19,-0.23,1.02,-0.32,-0.49,-2.27,30.98
45617,-0.19,-0.23,1.00,-1.02,-1.33,-3.16,30.88
45627,-0.19,-0.24,1.00,-1.86,-2.02,-3.56,31.07
45637,-0.19,-0.22,1.00,-2.24,-2.34,-3.71,30.98
45647,-0.19,-0.23,0.98,-3.27,-0.38,-3.65,30.98
45657,-0.20,-0.23,1.01,-3.60,0.02,-3.91,30.93
45667,-0.20,-0.24,1.00,-3.34,-0.05,-3.65,31.02
45677,-0.22,-0.23,1.01,-2.85,-0.17,-2.38,31.02
45687,-0.22,-0.24,1.01,-2.26,-0.63,-1.22,30.93
45697,-0.21,-0.23,1.01,-2.66,-0.82,-0.72,31.02
45707,-0.21,-0.24,1.03,-3.19,-0.79,-1.44,31.02
45717,-0.21,-0.24,1.02,-3.21,-1.54,-1.54,31.02
45727,-0.21,-0.24,1.01,-2.40,-0.79,-0.61,30.98
45737,-0.20,-0.23,1.02,-1.59,0.92,0.09,30.98
45747,-0.21,-0.23,1.02,-1.59,-0.03,-0.02,30.98
45757,-0.22,-0.23,1.02,-2.35,-1.02,0.38,30.98
45767,-0.21,-0.22,1.01,-3.34,-1.51,1.54,30.98
45777,-0.19,-0.24,1.03,-3.74,-0.29,1.80,31.07
45787,-0.18,-0.24,1.05,-3.19,1.40,1.31,31.02
45797,-0.20,-0.24,1.06,-1.28,-2.05,0.58,31.02
45807,-0.20,-0.24,1.03,-0.41,-3.79,0.43,31.02
45817,-0.18,-0.24,1.02,0.27,-2.89,0.78,31.02
45827,-0.17,-0.22,1.02,0.87,-0.61,1.22,30.93
45837,-0.17,-0.23,1.01,-0.50,3.19,1.80,31.02
45847,-0.18,-0.21,1.02,-1.95,4.46,2.11,31.07
45857,-0.19,-0.23,1.03,-2.24,1.21,2.02,31.07
45867,-0.19,-0.23,1.03,-1.54,-1.80,1.45,30.98
45877,-0.17,-0.23,1.03,-1.18,-3.39,0.56,30.98
45887,-0.17,-0.22,1.01,-1.44,-2.66,0.21,30.98
45897,-0.16,-0.22,1.01,-2.05,0.50,0.49,30.98
45907,-0.17,-0.21,1.01,-3.37,3.77,0.99,31.02
45917,-0.17,-0.21,1.01,-4.46,5.48,0.78,31.02
45927,-0.20,-0.21,1.03,-4.34,3.34,0.67,31.02
45937,-0.19,-0.21,1.04,-3.24,1.02,1.13,30.93
45947,-0.19,-0.22,1.04,-1.98,-0.50,0.90,31.02
45957,-0.18,-0.22,1.03,-2.02,-0.52,0.89,30.93
45967,-0.19,-0.21,1.02,-2.24,0.03,0.93,30.98
45977,-0.18,-0.21,1.02,-3.31,0.31,1.10,31.17
45987,-0.18,-0.21,1.02,-3.47,0.82,0.99,30.98
45997,-0.17,-0.21,1.02,-3.85,3.07,0.58,30.98
46007,-0.18,-0.21,1.03,-3.59,3.30,0.44,30.93
46017,-0.18,-0.20,1.03,-3.83,3.60,0.53,31.07
46027,-0.20,-0.21,1.04,-3.85,2.61,0.82,31.02
46037,-0.19,-0.21,1.03,-3.80,2.63,0.95,31.02
46047,-0.20,-0.22,1.04,-3.13,0.89,1.01,31.02
46057,-0.18,-0.22,1.03,-1.94,-0.52,1.34,30.93
46067,-0.18,-0.21,1.02,-1.22,-0.70,0.99,31.02
46077,-0.17,-0.20,1.01,-1.66,-0.03,1.11,31.02
46087,-0.16,-0.21,1.01,-2.20,1.82,0.93,30.93
46097,-0.17,-0.21,1.01,-2.08,3.02,1.01,30.98
46107,-0.16,-0.21,1.01,-2.41,3.76,0.90,30.98
46117,-0.17,-0.21,1.00,-2.50,3.86,1.02,31.07
46127,-0.17,-0.21,1.00,-2.38,2.41,0.93,31.07
46137,-0.16,-0.21,0.99,-2.87,2.63,0.21,31.12
46147,-0.16,-0.21,1.00,-3.47,3.50,-0.18,30.98
46157,-0.15,-0.20,0.99,-3.97,4.89,-0.87,30.93
46167,-0.16,-0.20,0.99,-4.78,6.18,-1.97,30.93
46177,-0.18,-0.20,1.01,-5.18,5.25,-2.44,31.02
46187,-0.19,-0.21,1.03,-4.58,2.82,-2.64,30.93
46197,-0.20,-0.20,1.02,-4.41,0.64,-1.85,30.93
46207,-0.20,-0.20,1.02,-3.56,-1.60,-0.81,31.02
46217,-0.19,-0.20,1.01,-3.85,-1.77,-0.78,30.93
46227,-0.19,-0.19,1.01,-4.90,-2.20,-0.99,30.98
46237,-0.19,-0.20,1.01,-6.47,-2.56,-1.19,30.98
46247,-0.18,-0.21,1.02,-7.16,-2.73,-1.34,30.98
46257,-0.19,-0.21,1.04,-7.02,-3.77,-1.40,30.98
46267,-0.20,-0.20,1.02,-6.69,-3.66,-1.27,30.93
46277,-0.19,-0.20,1.03,-6.43,-2.09,-1.01,30.93
46287,-0.19,-0.21,1.04,-5.60,-1.53,-0.78,31.02
