Millis,Acce_X,Acce_Y,Acce_Z,Gyro_X,Gyro_Y,Gyro_Z,Temp
48327,-0.15,-0.44,1.09,-5.50,-15.36,-3.77,30.46
48337,-0.21,-0.45,1.13,-4.44,-32.53,-8.09,30.55
48347,-0.26,-0.45,1.17,-2.75,-54.17,-13.76,30.51
48357,-0.30,-0.48,1.19,0.40,-70.55,-13.86,30.51
48367,-0.30,-0.43,1.15,5.37,-87.16,-9.71,30.51
48377,-0.23,-0.42,1.06,9.01,-88.08,-2.69,30.60
48387,-0.16,-0.39,0.98,7.10,-76.72,6.00,30.51
48397,-0.08,-0.37,0.92,2.31,-53.82,16.38,30.51
48407,-0.04,-0.40,0.93,-3.34,-25.97,25.11,30.46
48417,-0.08,-0.44,1.00,-6.82,-4.43,30.81,30.55
48427,-0.17,-0.48,1.10,-7.21,3.48,33.04,30.46
48437,-0.27,-0.52,1.17,-3.16,-1.48,33.53,30.46
48447,-0.35,-0.53,1.20,2.00,-14.00,34.78,30.55
48457,-0.38,-0.50,1.19,6.93,-29.19,39.18,30.46
48467,-0.36,-0.49,1.13,8.60,-39.45,43.95,30.55
48477,-0.31,-0.47,1.07,8.14,-41.62,49.92,30.41
48487,-0.26,-0.47,1.04,6.15,-38.40,57.02,30.51
48497,-0.22,-0.48,1.04,5.01,-33.56,62.44,30.51
48507,-0.21,-0.51,1.04,4.21,-28.84,66.82,30.55
48517,-0.20,-0.54,1.04,5.19,-24.29,70.14,30.51
48527,-0.19,-0.56,1.06,7.05,-21.25,72.63,30.51
48537,-0.21,-0.58,1.09,9.28,-21.56,74.52,30.46
48547,-0.21,-0.60,1.08,11.39,-24.60,76.03,30.55
48557,-0.20,-0.60,1.08,13.24,-29.85,76.81,30.55
48567,-0.18,-0.60,1.05,15.25,-36.85,77.11,30.46
48577,-0.17,-0.60,1.02,15.63,-41.10,77.05,30.55
48587,-0.15,-0.58,1.00,15.89,-44.17,77.19,30.55
48597,-0.14,-0.58,0.99,15.10,-44.02,79.91,30.51
48607,-0.13,-0.58,1.01,15.62,-42.20,82.85,30.60
48617,-0.12,-0.61,1.03,16.85,-40.17,86.81,30.41
48627,-0.12,-0.62,1.04,19.94,-40.90,91.08,30.41
48637,-0.10,-0.63,1.04,23.45,-41.40,94.61,30.51
48647,-0.06,-0.64,1.04,26.69,-42.90,96.67,30.60
48657,-0.02,-0.64,1.04,28.82,-43.92,97.66,30.60
48667,0.02,-0.66,1.03,30.12,-45.25,96.46,30.46
48677,0.04,-0.67,1.02,32.43,-45.33,93.30,30.37
48687,0.04,-0.67,1.00,35.04,-47.40,90.27,30.55
48697,0.04,-0.64,0.94,37.33,-49.77,88.96,30.46
48707,0.04,-0.61,0.90,37.47,-52.60,88.85,30.46
48717,0.06,-0.60,0.84,36.05,-52.37,89.33,30.46
48727,0.06,-0.56,0.82,32.12,-48.56,90.81,30.55
48737,0.05,-0.54,0.83,27.65,-43.98,93.69,30.51
48747,0.04,-0.55,0.86,24.95,-40.95,97.57,30.60
48757,0.04,-0.56,0.89,23.22,-39.48,99.68,30.41
48767,0.03,-0.58,0.92,23.57,-42.38,100.44,30.41
48777,0.04,-0.58,0.90,26.24,-46.18,100.84,30.41
48787,0.06,-0.58,0.88,27.77,-46.79,102.58,30.51
48797,0.09,-0.56,0.85,27.51,-41.65,106.61,30.55
48807,0.12,-0.55,0.82,26.52,-30.14,112.90,30.46
48817,0.14,-0.58,0.85,24.31,-18.12,117.10,30.55
48827,0.14,-0.58,0.87,22.23,-8.93,118.64,30.46
48837,0.11,-0.57,0.88,21.69,-7.10,119.98,30.46
48847,0.10,-0.56,0.91,20.31,-9.10,121.44,30.46
48857,0.12,-0.57,0.93,19.92,-11.48,122.60,30.60
48867,0.14,-0.57,0.94,19.16,-11.47,122.70,30.60
48877,0.17,-0.57,0.97,18.73,-11.51,120.26,30.51
48887,0.14,-0.61,1.02,18.81,-17.10,114.53,30.41
48897,0.12,-0.66,1.06,18.78,-29.80,106.56,30.55
48907,0.10,-0.66,1.05,22.14,-45.82,97.63,30.51
48917,0.06,-0.67,1.05,27.19,-62.05,90.85,30.41
48927,0.07,-0.60,0.98,32.93,-72.61,87.30,30.46
48937,0.10,-0.54,0.86,37.51,-70.20,92.53,30.46
48947,0.19,-0.55,0.76,42.93,-48.89,104.73,30.46
48957,0.25,-0.55,0.70,44.50,-6.20,114.66,30.46
48967,0.19,-0.55,0.76,45.36,29.82,119.66,30.46
48977,0.01,-0.54,0.87,43.11,35.42,116.27,30.46
48987,-0.14,-0.55,0.96,39.47,9.30,102.35,30.41
48997,-0.30,-0.54,1.02,32.15,-44.75,80.02,30.41
49007,-0.33,-0.46,0.93,34.23,-92.53,70.43,30.51
49017,-0.28,-0.38,0.73,40.84,-107.62,80.23,30.51
49027,-0.18,-0.31,0.55,38.17,-89.47,104.67,30.51
49037,-0.07,-0.34,0.49,27.39,-59.80,128.70,30.51
49047,0.00,-0.38,0.53,18.50,-28.31,151.83,30.41
49057,0.12,-0.42,0.55,8.31,-7.40,164.20,30.46
49067,0.21,-0.47,0.56,-1.45,-2.18,168.58,30.55
49077,0.25,-0.52,0.63,-15.66,-8.93,159.63,30.46
49087,0.27,-0.59,0.74,-25.71,-28.11,148.14,30.46
49097,0.27,-0.63,0.82,-31.07,-48.70,134.73,30.46
49107,0.26,-0.67,0.92,-32.90,-71.57,125.39,30.51
49117,0.30,-0.68,1.00,-28.44,-92.20,118.70,30.51
49127,0.38,-0.62,0.90,-17.13,-100.31,117.86,30.51
49137,0.49,-0.59,0.82,-5.73,-88.21,127.25,30.51
49147,0.61,-0.61,0.81,0.00,-69.21,137.33,30.51
49157,0.70,-0.61,0.80,-2.03,-48.34,136.06,30.46
49167,0.71,-0.68,0.86,-6.96,-38.26,123.92,30.46
49177,0.67,-0.69,0.92,-7.36,-44.56,102.35,30.46
49187,0.61,-0.62,0.91,-3.92,-51.91,83.16,30.55
49197,0.49,-0.51,0.82,-0.52,-54.53,79.25,30.46
49207,0.50,-0.44,0.73,8.81,-37.04,96.90,30.46
49217,0.56,-0.38,0.64,19.62,3.76,122.98,30.46
49227,0.66,-0.41,0.61,27.07,52.72,145.02,30.41
49237,0.67,-0.45,0.69,33.07,94.21,161.31,30.41
49247,0.58,-0.49,0.89,31.51,100.99,160.93,30.51
49257,0.42,-0.56,1.10,25.47,69.45,144.43,30.51
49267,0.33,-0.60,1.23,27.15,12.14,125.51,30.51
49277,0.28,-0.59,1.23,28.43,-54.75,104.82,30.41
49287,0.32,-0.62,1.10,29.68,-103.62,88.93,30.55
49297,0.42,-0.54,0.96,28.06,-121.97,80.64,30.46
49307,0.51,-0.49,0.84,27.05,-111.18,82.37,30.46
49317,0.59,-0.47,0.77,29.86,-83.71,87.33,30.46
49327,0.61,-0.42,0.73,31.13,-53.13,88.40,30.37
49337,0.57,-0.37,0.74,30.90,-34.41,80.99,30.46
49347,0.47,-0.30,0.72,24.61,-31.86,70.95,30.51
49357,0.36,-0.23,0.70,8.63,-40.14,63.57,30.51
49367,0.29,-0.21,0.78,-8.43,-52.53,64.00,30.51
49377,0.27,-0.21,0.86,-18.95,-61.98,68.82,30.41
49387,0.28,-0.28,0.89,-21.73,-63.62,86.05,30.51
49397,0.34,-0.30,0.94,-17.19,-51.89,107.05,30.51
49407,0.37,-0.35,1.09,-8.00,-39.73,127.34,30.46
49417,0.47,-0.47,1.05,1.80,-37.02,135.15,30.46
49427,0.54,-0.52,1.02,7.76,-36.58,127.33,30.37
49437,0.57,-0.47,1.00,4.50,-54.00,106.79,30.46
49447,0.72,-0.45,0.81,-8.69,-48.70,81.07,30.46
49457,0.72,-0.43,0.78,-20.98,-43.34,54.23,30.46
49467,0.72,-0.43,0.79,-30.67,-32.38,36.05,30.41
49477,0.64,-0.45,0.89,-33.04,-27.45,27.69,30.51
49487,0.60,-0.48,0.93,-29.83,-19.94,22.44,30.51
49497,0.54,-0.48,0.94,-23.80,-9.10,21.97,30.51
49507,0.46,-0.51,1.00,-16.17,-1.92,22.52,30.55
49517,0.40,-0.47,1.05,-11.77,-1.05,21.80,30.51
49527,0.37,-0.38,1.03,-14.27,-10.35,20.47,30.41
49537,0.41,-0.34,1.00,-19.40,-16.75,20.02,30.46
49547,0.45,-0.38,0.98,-23.71,-17.66,17.95,30.46
49557,0.49,-0.43,0.97,-25.47,-11.82,15.07,30.46
49567,0.50,-0.45,0.97,-25.24,-3.63,10.89,30.46
49577,0.47,-0.46,1.00,-22.64,4.89,7.68,30.46
49587,0.44,-0.48,1.05,-19.53,13.60,4.66,30.46
49597,0.38,-0.48,1.10,-16.98,15.63,2.17,30.51
49607,0.32,-0.49,1.14,-14.17,11.73,-2.03,30.51
49617,0.27,-0.45,1.11,-11.97,3.40,-7.04,30.51
49627,0.25,-0.40,1.08,-15.11,-3.07,-9.74,30.41
49637,0.25,-0.39,1.06,-17.28,-7.39,-9.22,30.46
49647,0.24,-0.40,1.06,-16.38,-6.55,-6.17,30.41
49657,0.24,-0.41,1.06,-14.15,-0.78,-4.03,30.55
49667,0.24,-0.39,1.05,-12.50,3.54,-1.73,30.46
49677,0.22,-0.36,1.05,-11.22,2.12,1.95,30.46
49687,0.23,-0.37,1.07,-9.92,2.32,7.45,30.55
49697,0.27,-0.41,1.08,-7.50,3.92,11.22,30.46
49707,0.32,-0.45,1.09,-5.65,3.15,10.70,30.37
49717,0.34,-0.49,1.08,-3.94,-1.25,6.47,30.51
49727,0.38,-0.49,1.07,-4.40,-4.55,-3.07,30.51
49737,0.36,-0.46,1.04,-4.38,-9.07,-11.21,30.41
49747,0.35,-0.43,0.98,-3.30,-7.57,-13.68,30.51
49757,0.34,-0.40,0.94,-2.29,-2.50,-11.86,30.51
49767,0.33,-0.39,0.91,-2.58,4.50,-8.78,30.55
49777,0.32,-0.40,0.93,-2.90,9.68,-6.92,30.55
49787,0.32,-0.39,0.94,-3.71,10.52,-7.51,30.37
49797,0.33,-0.40,0.92,-5.63,8.43,-7.95,30.46
49807,0.35,-0.42,0.92,-6.76,7.50,-11.07,30.46
49817,0.37,-0.43,0.92,-6.00,8.23,-15.44,30.37
49827,0.38,-0.42,0.93,-4.79,8.11,-18.84,30.37
49837,0.36,-0.40,0.90,-3.60,6.61,-18.06,30.41
49847,0.37,-0.38,0.88,-3.08,9.60,-15.48,30.51
49857,0.39,-0.38,0.87,-3.98,14.47,-12.03,30.41
49867,0.40,-0.39,0.88,-4.85,15.86,-10.20,30.41
49877,0.42,-0.41,0.87,-6.11,15.83,-10.82,30.60
49887,0.45,-0.42,0.88,-6.89,13.30,-13.59,30.51
49897,0.45,-0.43,0.88,-8.64,8.29,-17.25,30.37
49907,0.46,-0.44,0.88,-10.90,3.21,-21.02,30.46
49917,0.46,-0.43,0.89,-12.37,-0.38,-23.91,30.46
49927,0.45,-0.44,0.88,-12.31,-1.10,-23.89,30.46
49937,0.48,-0.46,0.90,-10.35,1.69,-22.06,30.46
49947,0.51,-0.45,0.90,-7.60,12.66,-19.01,30.55
49957,0.52,-0.49,0.94,-3.08,22.60,-16.78,30.51
49967,0.53,-0.51,0.96,-0.03,27.71,-20.66,30.51
49977,0.55,-0.51,0.94,0.43,25.74,-27.66,30.41
49987,0.52,-0.50,0.95,-1.80,17.05,-35.68,30.46
49997,0.55,-0.50,0.94,-4.61,15.27,-44.24,30.51
50007,0.56,-0.46,0.93,-7.79,11.16,-52.37,30.51
50017,0.57,-0.49,0.91,-10.98,10.52,-57.77,30.55
50027,0.56,-0.52,0.91,-9.59,17.86,-61.30,30.37
50037,0.52,-0.53,0.92,-4.93,32.18,-63.45,30.46
50047,0.43,-0.51,0.97,-0.90,43.40,-61.79,30.46
50057,0.36,-0.49,1.00,4.55,47.66,-56.95,30.37
50067,0.32,-0.47,0.96,7.71,46.43,-56.35,30.41
50077,0.28,-0.44,0.93,7.37,39.63,-57.80,30.51
50087,0.29,-0.41,0.89,4.61,28.76,-59.95,30.41
50097,0.32,-0.39,0.83,-0.63,19.71,-60.56,30.51
50107,0.38,-0.37,0.79,-6.23,17.02,-60.96,30.51
50117,0.41,-0.39,0.77,-11.51,19.37,-60.46,30.55
50127,0.43,-0.42,0.77,-14.11,25.28,-58.66,30.46
50137,0.45,-0.46,0.82,-14.92,32.24,-58.27,30.55
50147,0.45,-0.48,0.85,-13.31,38.49,-60.03,30.55
50157,0.43,-0.53,0.89,-11.66,41.11,-63.86,30.46
50167,0.40,-0.54,0.92,-9.83,38.56,-69.21,30.46
50177,0.40,-0.53,0.90,-7.54,35.05,-74.98,30.55
50187,0.39,-0.51,0.87,-6.95,33.16,-79.57,30.55
50197,0.39,-0.48,0.82,-7.16,31.80,-82.21,30.60
50207,0.39,-0.46,0.77,-8.12,33.47,-82.32,30.41
50217,0.40,-0.47,0.74,-8.75,36.76,-82.21,30.51
50227,0.41,-0.50,0.73,-11.51,39.82,-86.05,30.41
50237,0.39,-0.50,0.71,-14.53,39.33,-90.98,30.51
50247,0.36,-0.50,0.69,-17.73,37.19,-95.27,30.37
50257,0.38,-0.52,0.68,-20.27,39.30,-97.42,30.55
50267,0.39,-0.51,0.67,-23.76,46.60,-101.07,30.55
50277,0.39,-0.53,0.70,-26.58,55.37,-102.27,30.46
50287,0.35,-0.56,0.78,-27.21,61.86,-102.72,30.46
50297,0.34,-0.57,0.80,-26.82,64.73,-105.36,30.46
50307,0.32,-0.56,0.81,-27.51,64.46,-109.21,30.55
50317,0.32,-0.57,0.83,-29.54,62.14,-113.21,30.51
50327,0.34,-0.55,0.81,-31.39,59.04,-115.73,30.51
50337,0.36,-0.57,0.77,-33.21,57.34,-116.20,30.51
50347,0.38,-0.58,0.79,-36.49,56.96,-118.02,30.51
50357,0.38,-0.62,0.80,-41.11,56.47,-121.37,30.41
50367,0.41,-0.65,0.77,-43.15,59.57,-125.37,30.41
50377,0.43,-0.71,0.74,-43.25,69.91,-131.44,30.65
50387,0.40,-0.79,0.77,-46.05,79.88,-143.42,30.55
50397,0.35,-0.85,0.83,-45.80,83.85,-157.68,30.46
50407,0.26,-0.87,0.87,-39.76,81.51,-170.93,30.46
50417,0.19,-0.87,0.87,-30.66,78.27,-178.14,30.46
50427,0.17,-0.78,0.85,-21.86,74.34,-179.10,30.55
50437,0.14,-0.69,0.82,-21.33,76.17,-175.44,30.46
50447,0.14,-0.62,0.83,-20.89,87.08,-165.08,30.46
50457,0.13,-0.64,0.88,-16.84,98.90,-153.25,30.51
50467,0.11,-0.70,0.95,-13.76,106.72,-148.53,30.51
50477,0.10,-0.76,0.96,-10.50,103.94,-150.89,30.60
50487,0.06,-0.80,0.99,-5.79,91.01,-156.79,30.51
50497,0.01,-0.79,0.97,-1.63,75.50,-164.27,30.51
50507,0.01,-0.75,0.95,-0.32,65.11,-169.22,30.46
50517,0.01,-0.67,0.90,-4.40,62.34,-170.82,30.51
50527,-0.01,-0.63,0.91,-7.85,67.39,-166.52,30.51
50537,-0.01,-0.60,0.89,-7.59,76.70,-156.47,30.37
50547,-0.05,-0.61,0.90,-7.25,86.52,-146.34,30.46
50557,-0.08,-0.62,0.93,-9.76,91.76,-140.20,30.46
50567,-0.13,-0.63,0.97,-9.01,85.83,-136.43,30.46
50577,-0.18,-0.65,1.00,-6.40,74.37,-134.55,30.46
50587,-0.21,-0.63,0.98,-5.18,60.52,-132.11,30.46
50597,-0.20,-0.60,0.94,-3.71,48.84,-126.53,30.46
50607,-0.17,-0.58,0.93,-5.13,42.53,-119.50,30.51
50617,-0.13,-0.55,0.89,-6.75,40.09,-113.56,30.51
50627,-0.07,-0.53,0.84,-10.64,44.26,-108.24,30.51
50637,-0.05,-0.54,0.87,-14.81,49.88,-104.63,30.51
50647,-0.02,-0.56,0.88,-17.13,54.09,-105.18,30.41
50657,-0.05,-0.58,0.92,-20.55,57.11,-106.26,30.51
50667,-0.08,-0.62,0.98,-20.21,56.90,-107.16,30.51
50677,-0.12,-0.62,1.00,-16.32,50.49,-107.51,30.46
50687,-0.14,-0.58,0.98,-13.77,45.88,-106.99,30.55
50697,-0.14,-0.55,0.98,-12.76,37.69,-103.42,30.46
50707,-0.10,-0.53,0.96,-11.11,36.92,-100.89,30.55
50717,-0.09,-0.54,0.99,-15.48,41.18,-100.41,30.46
50727,-0.11,-0.54,1.03,-16.72,44.84,-99.42,30.55
50737,-0.15,-0.53,1.04,-15.07,50.44,-97.86,30.46
50747,-0.18,-0.53,1.03,-10.56,52.31,-91.59,30.41
50757,-0.18,-0.53,1.00,-6.92,52.98,-85.45,30.51
50767,-0.17,-0.53,0.99,-6.85,50.47,-82.09,30.41
50777,-0.16,-0.53,1.01,-8.06,44.27,-83.91,30.51
50787,-0.14,-0.53,1.00,-8.81,37.13,-87.51,30.51
50797,-0.14,-0.49,0.97,-10.44,37.27,-88.84,30.41
50807,-0.14,-0.46,0.97,-12.18,41.60,-84.92,30.55
50817,-0.12,-0.48,1.01,-13.16,49.57,-80.72,30.55
50827,-0.12,-0.50,1.03,-11.88,55.22,-77.79,30.46
50837,-0.14,-0.57,1.09,-9.07,55.92,-76.92,30.55
50847,-0.15,-0.63,1.11,-4.31,59.44,-77.94,30.46
50857,-0.17,-0.62,1.13,-0.31,54.99,-78.46,30.46
50867,-0.18,-0.57,1.11,4.72,47.15,-79.66,30.51
50877,-0.17,-0.49,1.06,6.67,42.44,-80.82,30.51
50887,-0.15,-0.45,1.01,4.61,41.82,-80.82,30.41
50897,-0.17,-0.43,1.02,0.60,48.03,-78.29,30.51
50907,-0.19,-0.45,1.04,-1.28,58.18,-72.69,30.51
50917,-0.22,-0.47,1.06,0.26,65.83,-65.69,30.60
50927,-0.25,-0.47,1.06,2.81,67.76,-63.42,30.37
50937,-0.27,-0.49,1.09,5.98,61.79,-65.98,30.46
50947,-0.31,-0.48,1.10,5.92,48.73,-70.72,30.55
50957,-0.37,-0.47,1.12,5.66,32.95,-74.49,30.46
50967,-0.43,-0.42,1.14,5.15,18.03,-76.14,30.55
50977,-0.48,-0.39,1.11,6.31,5.79,-70.85,30.46
50987,-0.44,-0.35,1.07,11.60,2.93,-58.98,30.41
50997,-0.36,-0.33,0.99,17.27,5.50,-45.80,30.51
51007,-0.26,-0.32,0.91,16.70,15.73,-35.63,30.41
51017,-0.18,-0.31,0.89,13.95,22.14,-31.92,30.60
51027,-0.13,-0.32,0.88,7.97,26.85,-33.66,30.46
51037,-0.14,-0.32,0.93,0.17,28.64,-39.94,30.51
51047,-0.19,-0.34,1.01,-2.89,23.60,-43.57,30.51
51057,-0.21,-0.36,1.03,-2.03,18.95,-43.30,30.55
51067,-0.21,-0.35,1.02,0.84,18.23,-39.85,30.46
51077,-0.22,-0.34,1.04,4.24,16.73,-35.16,30.55
51087,-0.20,-0.32,1.02,6.82,15.91,-29.69,30.46
51097,-0.16,-0.29,0.97,8.32,18.75,-25.08,30.46
51107,-0.12,-0.28,0.96,6.40,24.63,-22.44,30.46
51117,-0.13,-0.27,0.98,2.23,27.16,-21.19,30.41
51127,-0.14,-0.28,1.01,0.47,24.95,-22.08,30.41
51137,-0.14,-0.28,1.02,0.52,19.66,-22.55,30.51
51147,-0.14,-0.29,1.00,0.18,13.83,-22.32,30.60
51157,-0.14,-0.28,0.99,-0.21,10.21,-21.16,30.55
51167,-0.14,-0.26,0.98,-1.66,10.24,-18.61,30.51
51177,-0.14,-0.24,0.97,-3.13,13.11,-15.85,30.51
51187,-0.15,-0.25,1.00,-4.61,17.48,-13.04,30.46
51197,-0.17,-0.26,1.03,-5.83,18.02,-10.34,30.46
51207,-0.19,-0.27,1.06,-6.02,13.83,-8.17,30.55
51217,-0.19,-0.29,1.06,-4.64,4.15,-7.19,30.46
51227,-0.18,-0.30,1.06,-3.56,-6.03,-8.03,30.46
51237,-0.17,-0.30,1.06,-2.75,-15.86,-9.63,30.46
51247,-0.13,-0.28,1.02,-3.37,-21.37,-9.59,30.51
51257,-0.10,-0.28,1.01,-3.85,-19.80,-7.85,30.51
51267,-0.09,-0.28,1.03,-4.09,-14.60,-3.94,30.60
51277,-0.08,-0.28,1.03,-2.21,-5.47,0.21,30.41
51287,-0.12,-0.26,1.00,-1.60,-1.18,6.78,30.46
51297,-0.11,-0.28,1.01,-0.24,-0.23,8.58,30.51
51307,-0.10,-0.28,1.01,-1.91,-6.27,6.02,30.51
51317,-0.07,-0.29,1.00,-3.57,-11.44,2.85,30.46
51327,-0.04,-0.32,0.99,-3.80,-12.44,2.37,30.46
51337,-0.03,-0.31,0.99,-3.02,-8.11,1.94,30.46
51347,-0.03,-0.29,1.00,-2.55,-2.34,3.22,30.46
51357,-0.04,-0.28,0.99,-3.54,-0.52,4.73,30.55
51367,-0.04,-0.27,0.98,-4.17,-2.56,5.02,30.46
51377,-0.01,-0.28,0.97,-6.67,-4.58,5.13,30.51
51387,0.02,-0.29,0.97,-9.16,-4.60,4.49,30.51
51397,0.03,-0.31,1.00,-10.38,-2.32,2.81,30.41
51407,0.04,-0.33,1.01,-10.27,1.65,1.02,30.51
51417,0.02,-0.35,1.05,-9.27,3.76,-0.72,30.51
51427,0.01,-0.36,1.08,-6.38,3.15,-1.92,30.41
51437,-0.02,-0.36,1.07,-3.24,1.63,-1.82,30.51
51447,-0.01,-0.34,1.06,-0.32,-0.34,-1.40,30.55
51457,-0.01,-0.32,1.03,0.50,-1.36,-1.24,30.46
51467,-0.00,-0.30,1.01,-0.52,-0.61,-1.36,30.55
51477,-0.01,-0.30,1.00,-1.59,1.34,-1.25,30.46
51487,-0.01,-0.28,1.00,-2.21,3.40,-0.27,30.46
51497,-0.02,-0.28,1.00,-3.71,3.98,0.52,30.55
51507,-0.01,-0.26,0.99,-4.98,4.08,1.62,30.46
51517,-0.00,-0.27,0.98,-6.23,5.36,1.77,30.51
51527,0.00,-0.27,0.99,-8.73,6.90,1.69,30.60
51537,0.00,-0.29,1.01,-10.53,9.59,0.76,30.32
51547,-0.01,-0.31,1.02,-11.21,11.54,-0.32,30.51
51557,-0.03,-0.33,1.04,-11.11,11.25,-0.99,30.51
51567,-0.04,-0.34,1.06,-9.62,9.59,-1.66,30.51
51577,-0.05,-0.34,1.07,-7.54,7.31,-1.56,30.41
51587,-0.06,-0.34,1.07,-5.01,4.18,-0.98,30.55
51597,-0.06,-0.32,1.06,-3.48,1.76,-0.41,30.55
51607,-0.07,-0.31,1.06,-2.63,-0.31,0.31,30.46
51617,-0.05,-0.31,1.05,-2.76,-2.23,0.56,30.46
51627,-0.06,-0.30,1.04,-3.68,-6.14,1.10,30.55
51637,-0.05,-0.30,1.05,-4.18,-8.90,1.21,30.55
51647,-0.03,-0.30,1.02,-2.73,-10.69,1.89,30.46
51657,-0.01,-0.30,0.99,-1.63,-8.85,2.35,30.51
51667,0.01,-0.29,0.96,-2.66,-6.87,2.63,30.51
51677,0.02,-0.28,0.96,-4.38,-2.85,2.90,30.51
51687,0.01,-0.27,0.95,-6.66,2.06,4.06,30.51
51697,0.01,-0.29,0.96,-7.34,6.99,5.04,30.51
51707,-0.00,-0.30,0.99,-7.37,10.61,5.05,30.51
51717,-0.00,-0.30,1.01,-6.52,10.70,4.14,30.46
51727,-0.02,-0.31,1.01,-6.76,7.98,2.81,30.37
51737,-0.02,-0.31,1.03,-7.44,5.34,1.66,30.55
51747,-0.03,-0.31,1.04,-7.83,4.26,0.82,30.46
51757,-0.03,-0.33,1.03,-7.16,4.55,0.24,30.46
51767,-0.04,-0.33,1.03,-6.79,3.22,1.48,30.46
51777,-0.03,-0.34,1.03,-5.63,2.21,4.50,30.46
51787,-0.01,-0.34,1.02,-4.98,4.64,6.37,30.46
51797,-0.00,-0.34,1.02,-5.07,6.20,7.10,30.51
51807,-0.01,-0.34,1.02,-5.42,6.38,7.13,30.51
51817,-0.02,-0.33,1.02,-6.09,6.69,5.89,30.41
51827,-0.02,-0.33,1.03,-5.51,4.49,4.87,30.51
51837,-0.02,-0.33,1.03,-4.82,3.07,4.43,30.51
51847,-0.02,-0.32,1.02,-5.36,2.18,3.22,30.46
51857,-0.03,-0.33,1.03,-5.57,0.26,1.91,30.55
51867,-0.04,-0.33,1.04,-5.65,-1.15,1.05,30.55
51877,-0.02,-0.32,1.02,-4.23,-1.02,1.10,30.55
51887,-0.01,-0.31,1.01,-4.70,1.66,1.56,30.46
51897,-0.01,-0.30,0.99,-5.10,3.88,1.45,30.55
51907,-0.01,-0.30,0.99,-5.51,6.02,1.42,30.55
51917,-0.02,-0.31,0.99,-6.00,6.53,1.97,30.37
51927,-0.03,-0.31,1.00,-7.28,6.24,2.84,30.51
51937,-0.03,-0.31,1.01,-8.49,5.28,3.47,30.41
51947,-0.03,-0.32,1.03,-9.08,3.07,3.13,30.41
51957,-0.03,-0.33,1.03,-8.69,1.36,2.34,30.41
51967,-0.01,-0.33,1.03,-8.44,0.00,1.45,30.51
51977,0.01,-0.34,1.03,-7.77,-0.14,0.21,30.46
51987,0.00,-0.34,1.02,-7.76,-0.58,-0.95,30.46
51997,0.01,-0.32,1.02,-7.80,0.47,-1.79,30.55
52007,0.01,-0.31,1.00,-7.95,1.42,-1.86,30.55
52017,0.01,-0.32,1.00,-8.81,4.23,-1.53,30.55
52027,0.01,-0.32,1.00,-9.30,7.73,-1.10,30.46
52037,-0.01,-0.32,1.01,-9.76,10.26,0.00,30.55
52047,-0.03,-0.33,1.02,-9.08,10.02,1.68,30.55
52057,-0.04,-0.33,1.04,-8.81,7.62,1.79,30.51
52067,-0.04,-0.34,1.04,-8.14,4.02,1.04,30.51
52077,-0.03,-0.32,1.03,-8.52,0.95,0.17,30.51
52087,-0.04,-0.33,1.04,-8.29,-1.08,-0.08,30.60
52097,-0.04,-0.34,1.04,-7.33,-2.73,1.16,30.41
52107,-0.04,-0.33,1.02,-6.43,-1.01,2.21,30.55
52117,-0.02,-0.34,1.01,-5.53,-0.05,3.40,30.37
52127,-0.03,-0.33,1.01,-4.90,1.19,3.83,30.46
52137,-0.02,-0.33,0.98,-5.07,2.55,3.16,30.55
52147,-0.01,-0.33,0.99,-5.98,4.08,1.79,30.46
52157,-0.03,-0.33,0.99,-7.54,4.15,0.75,30.46
52167,-0.03,-0.33,1.00,-8.56,3.27,0.79,30.55
52177,-0.04,-0.34,1.02,-8.35,3.40,0.53,30.55
52187,-0.04,-0.34,1.01,-8.12,2.70,-0.52,30.51
52197,-0.04,-0.34,1.01,-8.26,0.75,-0.24,30.60
52207,-0.03,-0.35,0.99,-7.97,0.11,1.36,30.51
52217,-0.01,-0.36,0.99,-8.63,4.27,2.47,30.51
52227,-0.02,-0.36,0.99,-8.81,9.59,3.85,30.51
52237,-0.01,-0.36,1.00,-9.60,15.15,4.38,30.55
52247,-0.03,-0.37,1.02,-9.73,17.69,5.07,30.55
52257,-0.05,-0.38,1.04,-9.18,16.60,4.14,30.37
52267,-0.06,-0.38,1.06,-8.38,12.24,2.44,30.46
52277,-0.07,-0.38,1.04,-6.53,7.57,1.91,30.55
52287,-0.06,-0.37,1.03,-4.93,3.54,2.11,30.46
52297,-0.04,-0.36,1.01,-4.69,2.50,1.22,30.46
52307,-0.04,-0.34,1.02,-5.77,2.34,-0.26,30.41
52317,-0.06,-0.34,1.04,-6.35,1.39,-1.51,30.51
52327,-0.08,-0.35,1.03,-5.10,-0.72,-1.95,30.51
52337,-0.08,-0.34,1.03,-3.45,-2.58,-2.27,30.51
52347,-0.09,-0.33,1.02,-2.32,-5.50,-2.27,30.60
52357,-0.08,-0.32,1.01,-2.75,-7.85,-2.23,30.51
52367,-0.07,-0.33,1.00,-3.56,-9.02,-0.49,30.46
52377,-0.06,-0.34,0.98,-4.00,-8.99,1.18,30.55
52387,-0.06,-0.33,0.99,-4.84,-9.11,2.06,30.46
52397,-0.04,-0.33,0.98,-4.92,-8.15,2.03,30.55
52407,-0.01,-0.34,0.98,-4.64,-7.59,1.74,30.46
52417,-0.00,-0.33,0.98,-5.15,-7.04,0.79,30.55
52427,0.01,-0.33,0.98,-5.92,-5.60,-0.26,30.46
52437,0.00,-0.33,0.98,-7.02,-2.14,-1.24,30.41
52447,-0.01,-0.34,1.00,-6.98,1.04,-1.04,30.41
52457,-0.03,-0.33,1.01,-6.38,2.84,-0.43,30.51
52467,-0.04,-0.34,1.01,-5.89,2.41,0.24,30.51
52477,-0.05,-0.33,1.02,-6.11,0.98,0.60,30.51
52487,-0.04,-0.31,1.01,-6.34,-0.41,0.61,30.41
52497,-0.04,-0.32,1.02,-6.61,-1.71,0.82,30.46
52507,-0.03,-0.33,1.00,-6.99,-2.35,1.15,30.46
52517,-0.03,-0.33,0.99,-7.39,-2.89,1.73,30.46
52527,-0.02,-0.34,0.99,-7.73,-3.13,1.42,30.46
52537,-0.02,-0.34,1.01,-7.71,-2.37,1.01,30.46
52547,-0.03,-0.35,1.02,-7.56,-1.48,1.45,30.55
52557,-0.05,-0.34,1.01,-7.24,-0.66,3.39,30.46
52567,-0.06,-0.34,1.02,-7.13,0.66,4.99,30.41
52577,-0.06,-0.33,1.01,-7.50,1.45,5.47,30.51
52587,-0.08,-0.33,1.01,-8.26,-1.36,6.90,30.51
52597,-0.08,-0.33,1.00,-9.01,-4.58,7.56,30.51
52607,-0.07,-0.32,0.99,-10.18,-5.79,7.27,30.51
52617,-0.07,-0.33,0.99,-11.10,-8.21,6.84,30.41
52627,-0.06,-0.33,0.98,-13.16,-9.10,6.14,30.46
52637,-0.06,-0.34,0.98,-14.32,-9.11,5.77,30.55
52647,-0.05,-0.35,0.99,-13.91,-8.00,5.80,30.46
52657,-0.04,-0.37,0.99,-13.02,-7.42,6.53,30.46
52667,-0.03,-0.38,0.98,-11.57,-6.73,8.09,30.46
52677,-0.02,-0.37,0.98,-10.70,-4.61,9.39,30.46
52687,-0.00,-0.38,0.99,-10.72,-1.97,9.79,30.51
52697,0.00,-0.39,1.00,-10.89,0.00,9.79,30.60
52707,-0.00,-0.40,1.01,-10.76,0.46,9.60,30.51
52717,-0.00,-0.40,1.01,-11.22,0.23,8.69,30.51
52727,0.00,-0.40,1.02,-11.48,-1.47,6.81,30.51
52737,0.00,-0.40,1.01,-11.53,-3.47,5.91,30.51
52747,0.01,-0.41,1.01,-10.67,-3.44,5.89,30.51
52757,0.01,-0.40,1.02,-10.37,-1.39,6.02,30.46
52767,0.01,-0.40,1.02,-10.18,0.09,5.65,30.55
52777,0.01,-0.41,1.02,-9.42,0.09,5.19,30.46
52787,-0.00,-0.41,1.01,-8.15,-0.43,4.56,30.46
52797,0.01,-0.40,1.01,-7.25,-1.66,4.17,30.37
52807,0.01,-0.39,1.00,-7.68,-1.71,3.42,30.55
52817,0.00,-0.37,1.00,-8.89,-0.61,3.65,30.41
52827,0.01,-0.37,0.98,-8.82,0.76,4.50,30.41
52837,0.02,-0.38,0.98,-9.05,3.79,5.01,30.51
52847,0.02,-0.40,1.00,-9.57,5.24,4.31,30.55
52857,0.00,-0.40,1.02,-9.56,6.15,3.25,30.51
52867,-0.00,-0.40,1.02,-9.82,5.56,2.63,30.41
52877,-0.02,-0.40,1.03,-9.57,3.07,2.85,30.46
52887,-0.02,-0.41,1.04,-8.06,2.56,3.31,30.46
52897,-0.02,-0.41,1.05,-5.94,3.66,4.23,30.46
52907,-0.03,-0.40,1.05,-5.22,5.19,4.75,30.46
52917,-0.06,-0.39,1.04,-5.07,5.80,5.79,30.55
52927,-0.08,-0.38,1.04,-4.82,4.92,7.59,30.46
52937,-0.10,-0.39,1.05,-4.03,3.39,9.19,30.51
52947,-0.10,-0.39,1.07,-1.74,-0.41,10.24,30.51
52957,-0.10,-0.38,1.04,0.78,-5.74,11.30,30.51
52967,-0.08,-0.37,1.01,0.69,-11.65,10.08,30.51
52977,-0.06,-0.35,0.98,-0.90,-16.75,8.43,30.55
52987,-0.03,-0.35,0.95,-3.24,-16.99,8.17,30.41
52997,-0.02,-0.35,0.93,-4.72,-14.66,9.92,30.41
53007,0.03,-0.37,0.93,-5.94,-9.76,10.87,30.55
53017,0.04,-0.38,0.92,-8.08,-4.90,9.74,30.46
53027,0.05,-0.37,0.94,-10.21,-2.17,8.12,30.55
53037,0.05,-0.39,0.95,-11.15,1.18,6.79,30.55
53047,0.04,-0.40,0.97,-11.36,3.63,6.93,30.55
53057,0.02,-0.42,0.99,-11.21,6.69,7.04,30.46
53067,0.00,-0.42,1.01,-9.60,8.06,7.57,30.55
53077,-0.00,-0.42,1.04,-8.60,8.73,6.98,30.51
53087,-0.02,-0.42,1.05,-7.50,7.02,6.00,30.41
53097,-0.03,-0.42,1.06,-5.89,3.47,5.65,30.41
53107,-0.02,-0.42,1.04,-3.83,-0.09,5.65,30.51
53117,-0.01,-0.41,1.02,-2.95,-2.95,5.57,30.51
53127,0.01,-0.41,0.99,-3.16,-4.47,4.76,30.51
53137,0.02,-0.40,0.97,-4.55,-4.41,4.24,30.46
53147,0.04,-0.40,0.98,-5.59,-2.12,3.51,30.55
53157,0.04,-0.41,0.98,-6.47,0.82,2.23,30.46
53167,0.03,-0.41,0.99,-6.89,2.46,1.37,30.55
53177,0.02,-0.41,1.00,-6.56,2.32,-0.06,30.46
53187,0.01,-0.43,1.00,-4.95,1.68,0.06,30.55
53197,0.02,-0.42,1.01,-4.60,2.79,-0.26,30.46
53207,0.01,-0.41,1.00,-3.88,4.87,-0.23,30.46
53217,-0.01,-0.39,0.99,-4.23,6.08,0.50,30.51
53227,-0.03,-0.39,0.99,-4.50,5.69,1.07,30.51
53237,-0.03,-0.39,1.00,-4.53,3.50,2.11,30.51
53247,-0.04,-0.38,1.00,-4.46,1.28,2.41,30.51
53257,-0.04,-0.38,0.98,-4.87,-1.30,2.27,30.51
53267,-0.03,-0.37,0.95,-5.22,-2.75,3.37,30.51
53277,-0.03,-0.36,0.95,-6.76,-2.08,2.63,30.46
53287,-0.02,-0.36,0.94,-8.14,-1.62,2.20,30.46
53297,-0.03,-0.35,0.94,-9.71,0.50,2.63,30.55
53307,-0.03,-0.35,0.94,-10.61,1.02,4.34,30.46
53317,-0.04,-0.37,0.95,-11.65,4.02,5.45,30.55
