Millis,Acce_X,Acce_Y,Acce_Z,Gyro_X,Gyro_Y,Gyro_Z,Temp
126967,0.07,-0.33,1.02,-12.78,40.66,9.71,30.55
126977,0.03,-0.32,1.05,-12.67,33.77,9.13,30.65
126987,-0.01,-0.34,1.08,-13.08,22.03,8.29,30.55
126997,-0.01,-0.35,1.10,-13.01,9.56,6.49,30.55
127007,-0.03,-0.36,1.12,-12.05,-2.47,4.84,30.55
127017,-0.03,-0.36,1.12,-9.71,-10.87,4.03,30.55
127027,-0.02,-0.37,1.11,-6.47,-14.64,4.29,30.60
127037,-0.03,-0.36,1.09,-4.58,-16.61,5.21,30.60
127047,-0.04,-0.35,1.09,-3.97,-18.84,6.08,30.51
127057,-0.05,-0.35,1.06,-2.84,-19.53,7.19,30.51
127067,-0.05,-0.34,1.06,-2.46,-19.50,8.40,30.51
127077,-0.08,-0.34,1.06,-1.95,-18.85,10.84,30.51
127087,-0.10,-0.34,1.06,-1.05,-18.14,14.03,30.51
127097,-0.10,-0.34,1.08,-1.51,-18.43,17.39,30.60
127107,-0.12,-0.34,1.07,-2.90,-20.06,19.59,30.55
127117,-0.12,-0.34,1.10,-3.21,-18.73,21.19,30.60
127127,-0.10,-0.36,1.09,-1.45,-15.18,23.68,30.55
127137,-0.10,-0.37,1.10,-0.05,-9.18,25.97,30.55
127147,-0.10,-0.39,1.08,-0.49,-0.82,27.34,30.55
127157,-0.13,-0.40,1.10,0.18,10.58,28.55,30.65
127167,-0.16,-0.40,1.08,-3.92,30.75,32.12,30.46
127177,-0.26,-0.42,1.17,-0.29,27.86,36.08,30.55
127187,-0.31,-0.40,1.16,4.02,27.50,41.21,30.55
127197,-0.38,-0.38,1.16,6.89,19.83,47.91,30.55
127207,-0.39,-0.37,1.15,9.31,7.82,57.63,30.46
127217,-0.36,-0.39,1.14,9.04,-0.43,67.25,30.51
127227,-0.30,-0.43,1.15,8.09,-6.49,73.98,30.51
127237,-0.25,-0.47,1.13,7.50,-12.29,77.71,30.51
127247,-0.19,-0.51,1.13,8.98,-19.27,79.53,30.69
127257,-0.14,-0.52,1.10,11.21,-27.63,79.57,30.51
127267,-0.11,-0.53,1.07,12.24,-33.50,78.78,30.60
127277,-0.07,-0.53,1.06,14.29,-35.97,79.18,30.46
127287,-0.04,-0.54,1.02,16.47,-33.24,80.41,30.41
127297,-0.00,-0.52,0.99,18.09,-28.38,82.82,30.51
127307,0.02,-0.52,0.99,18.18,-23.97,85.16,30.55
127317,0.03,-0.52,1.01,16.85,-21.44,86.23,30.46
127327,0.03,-0.53,1.02,14.89,-21.21,86.52,30.55
127337,0.05,-0.53,1.06,13.66,-25.65,85.15,30.55
127347,0.04,-0.53,1.09,12.44,-33.30,81.98,30.46
127357,0.04,-0.56,1.10,15.31,-41.47,78.06,30.46
127367,0.05,-0.57,1.06,20.31,-45.30,76.15,30.55
127377,0.05,-0.53,0.97,26.58,-42.18,78.61,30.55
127387,0.09,-0.51,0.91,27.31,-30.11,84.93,30.55
127397,0.09,-0.50,0.87,23.05,-14.82,90.69,30.46
127407,0.11,-0.51,0.91,16.47,-0.34,93.28,30.51
127417,0.08,-0.55,1.00,11.53,-1.44,91.44,30.41
127427,0.01,-0.59,1.08,9.77,-21.48,84.55,30.51
127437,-0.06,-0.62,1.13,9.39,-51.94,74.17,30.51
127447,-0.06,-0.53,1.04,13.42,-77.05,69.37,30.51
127457,-0.04,-0.46,0.93,19.22,-83.79,73.92,30.51
127467,0.02,-0.43,0.86,19.51,-76.43,83.63,30.60
127477,0.11,-0.46,0.82,18.67,-53.39,93.28,30.60
127487,0.13,-0.51,0.89,11.95,-35.42,96.09,30.55
127497,0.11,-0.56,0.99,7.30,-31.98,90.78,30.55
127507,0.04,-0.61,1.11,8.00,-43.01,83.60,30.55
127517,-0.03,-0.58,1.09,15.02,-55.63,82.08,30.46
127527,-0.04,-0.52,1.04,25.57,-61.77,87.91,30.46
127537,0.01,-0.51,0.97,31.71,-57.39,96.27,30.55
127547,0.06,-0.50,0.92,28.09,-46.27,102.11,30.55
127557,0.10,-0.53,0.94,21.21,-38.70,105.24,30.46
127567,0.11,-0.57,0.97,17.73,-39.85,104.27,30.55
127577,0.11,-0.59,1.01,16.82,-46.76,101.08,30.51
127587,0.12,-0.55,0.95,18.47,-47.57,101.13,30.41
127597,0.12,-0.50,0.91,21.65,-44.26,107.94,30.60
127607,0.19,-0.50,0.89,21.34,-31.79,117.19,30.51
127617,0.27,-0.53,0.90,18.50,-18.09,124.47,30.51
127627,0.31,-0.56,0.91,14.18,-8.64,128.60,30.41
127637,0.36,-0.58,0.92,12.52,-8.31,128.99,30.41
127647,0.42,-0.63,0.92,12.85,-16.00,124.61,30.51
127657,0.48,-0.64,0.95,12.31,-31.01,114.50,30.46
127667,0.51,-0.67,0.96,11.71,-53.62,100.95,30.46
127677,0.55,-0.66,0.93,12.03,-73.88,87.77,30.46
127687,0.61,-0.65,0.88,12.95,-85.40,77.91,30.46
127697,0.67,-0.63,0.83,13.56,-84.18,68.67,30.55
127707,0.66,-0.62,0.84,13.42,-76.55,58.03,30.46
127717,0.64,-0.58,0.87,16.43,-68.84,45.76,30.46
127727,0.55,-0.47,0.81,21.04,-56.03,38.17,30.46
127737,0.41,-0.38,0.74,21.13,-35.04,38.95,30.51
127747,0.30,-0.33,0.77,19.57,-16.93,46.96,30.51
127757,0.19,-0.32,0.82,17.74,-1.04,57.63,30.51
127767,0.14,-0.34,0.89,10.95,8.23,66.92,30.51
127777,0.09,-0.39,1.02,7.77,-8.15,68.61,30.51
127787,0.11,-0.42,1.07,8.56,-34.20,62.98,30.46
127797,0.10,-0.42,1.03,12.29,-57.89,58.41,30.41
127807,0.14,-0.40,0.98,22.52,-75.65,58.73,30.41
127817,0.20,-0.39,0.89,28.81,-73.27,62.66,30.55
127827,0.23,-0.38,0.83,29.59,-60.69,68.00,30.46
127837,0.23,-0.37,0.82,27.16,-50.79,71.01,30.46
127847,0.22,-0.37,0.84,22.05,-52.09,71.02,30.46
127857,0.21,-0.33,0.83,19.44,-59.07,70.06,30.46
127867,0.22,-0.32,0.77,21.73,-64.00,73.02,30.46
127877,0.27,-0.33,0.71,25.94,-62.63,77.45,30.37
127887,0.34,-0.33,0.66,23.62,-49.21,82.14,30.41
127897,0.35,-0.33,0.66,17.34,-35.04,86.27,30.51
127907,0.34,-0.34,0.73,14.31,-22.38,91.50,30.51
127917,0.32,-0.35,0.74,17.15,-7.44,101.13,30.51
127927,0.33,-0.34,0.73,24.12,9.76,116.40,30.51
127937,0.34,-0.33,0.72,33.89,30.60,137.08,30.51
127947,0.40,-0.38,0.71,43.59,52.34,158.53,30.46
127957,0.45,-0.39,0.71,51.59,68.00,175.76,30.46
127967,0.46,-0.43,0.69,56.20,77.79,187.21,30.46
127977,0.47,-0.44,0.65,60.14,76.47,192.56,30.46
127987,0.49,-0.44,0.65,61.07,65.65,189.79,30.46
127997,0.50,-0.34,0.56,44.21,71.74,182.70,30.46
128007,0.40,-0.37,0.70,24.78,63.83,172.43,30.46
128017,0.28,-0.37,0.83,13.62,56.76,164.66,30.51
128027,0.19,-0.41,0.94,7.92,38.56,157.13,30.51
128037,0.15,-0.44,1.03,5.56,9.31,148.89,30.41
128047,0.20,-0.44,1.05,3.04,-13.74,138.09,30.41
128057,0.26,-0.45,1.05,0.52,-29.71,125.71,30.41
128067,0.31,-0.44,1.05,-2.06,-41.13,113.56,30.41
128077,0.39,-0.40,0.96,-0.87,-39.79,102.66,30.51
128087,0.45,-0.36,0.89,-1.07,-26.93,93.11,30.55
128097,0.45,-0.34,0.90,-5.89,-14.63,83.48,30.37
128107,0.42,-0.36,0.96,-13.37,-4.27,73.59,30.55
128117,0.38,-0.37,1.02,-18.40,3.95,65.15,30.37
128127,0.32,-0.41,1.10,-18.87,6.43,56.06,30.46
128137,0.29,-0.44,1.14,-14.95,3.89,45.71,30.55
128147,0.25,-0.45,1.15,-8.52,-1.60,34.93,30.46
128157,0.20,-0.42,1.12,-2.73,-10.38,26.60,30.46
128167,0.17,-0.39,1.03,0.08,-16.24,23.02,30.51
128177,0.13,-0.34,0.98,-1.74,-22.92,19.91,30.41
128187,0.12,-0.30,0.92,-5.40,-28.15,16.64,30.51
128197,0.12,-0.20,0.84,-12.53,-30.76,17.51,30.51
128207,0.14,-0.15,0.80,-18.18,-30.64,22.12,30.51
128217,0.17,-0.17,0.82,-23.02,-22.40,29.40,30.46
128227,0.20,-0.25,0.89,-31.85,-10.34,35.86,30.51
128237,0.17,-0.34,1.00,-38.02,-5.98,36.79,30.46
128247,0.16,-0.43,1.13,-36.14,-11.33,33.30,30.37
128257,0.11,-0.45,1.19,-33.83,-26.02,28.92,30.46
128267,0.14,-0.44,1.17,-26.58,-45.45,26.75,30.46
128277,0.22,-0.42,1.08,-18.52,-47.44,29.48,30.46
128287,0.32,-0.42,1.02,-13.47,-35.47,32.76,30.46
128297,0.41,-0.42,0.99,-11.51,-12.44,33.73,30.46
128307,0.42,-0.43,0.97,-9.24,9.40,30.49,30.41
128317,0.39,-0.44,0.99,-6.37,25.25,25.40,30.41
128327,0.34,-0.43,0.98,-1.36,36.72,19.30,30.51
128337,0.28,-0.43,0.97,4.50,45.59,13.21,30.60
128347,0.23,-0.42,0.98,11.37,52.95,10.18,30.37
128357,0.20,-0.42,0.98,18.37,61.18,5.92,30.51
128367,0.15,-0.37,0.95,21.71,64.92,-0.73,30.46
128377,0.10,-0.34,0.93,23.07,68.61,-3.47,30.46
128387,0.06,-0.34,0.97,25.13,70.69,-6.17,30.46
128397,0.01,-0.33,1.03,28.56,70.63,-7.92,30.46
128407,-0.05,-0.27,1.07,26.81,67.85,-8.70,30.46
128417,-0.14,-0.27,1.13,21.60,54.89,-7.13,30.46
128427,-0.16,-0.28,1.17,17.63,36.37,-5.80,30.55
128437,-0.19,-0.24,1.17,13.31,15.13,-3.31,30.60
128447,-0.19,-0.22,1.15,7.37,-2.69,-1.34,30.51
128457,-0.16,-0.20,1.14,2.64,-14.27,6.93,30.51
128467,-0.13,-0.22,1.11,0.43,-20.40,17.79,30.51
128477,-0.08,-0.25,1.10,-1.95,-18.31,29.36,30.51
128487,-0.05,-0.27,1.07,-4.03,-12.99,40.56,30.41
128497,0.01,-0.30,1.07,-5.88,-5.62,47.39,30.51
128507,0.04,-0.36,1.08,-7.33,-7.40,46.81,30.46
128517,0.07,-0.40,1.09,-5.66,-14.49,40.61,30.46
128527,0.07,-0.41,1.10,-5.10,-27.11,32.93,30.37
128537,0.09,-0.37,1.03,-5.31,-38.02,28.46,30.37
128547,0.11,-0.33,0.96,-6.41,-40.67,28.69,30.46
128557,0.15,-0.33,0.91,-8.81,-33.85,32.63,30.55
128567,0.17,-0.32,0.91,-12.46,-25.10,35.04,30.46
128577,0.15,-0.31,0.92,-18.69,-22.11,34.32,30.46
128587,0.13,-0.27,0.93,-22.29,-23.77,34.55,30.51
128597,0.14,-0.29,0.93,-20.09,-18.98,39.48,30.51
128607,0.19,-0.33,0.94,-16.41,-6.89,46.69,30.51
128617,0.24,-0.38,0.97,-15.45,4.69,49.31,30.32
128627,0.28,-0.43,1.01,-17.74,11.24,44.61,30.51
128637,0.27,-0.47,1.02,-20.38,6.70,32.44,30.41
128647,0.27,-0.45,1.01,-17.36,9.76,19.85,30.46
128657,0.26,-0.44,0.99,-7.86,15.42,9.82,30.46
128667,0.25,-0.41,0.95,0.90,27.27,3.57,30.46
128677,0.19,-0.36,0.96,5.60,38.24,3.19,30.46
128687,0.12,-0.32,0.99,5.15,41.11,8.11,30.46
128697,0.07,-0.32,0.99,4.20,36.02,16.66,30.46
128707,0.04,-0.31,1.07,3.71,22.26,24.61,30.46
128717,0.05,-0.31,1.02,-2.38,-7.79,30.55,30.46
128727,0.06,-0.34,1.01,-7.08,-47.42,31.94,30.51
128737,0.18,-0.34,0.93,-13.10,-72.78,29.51,30.51
128747,0.30,-0.38,0.87,-14.72,-80.47,27.86,30.51
128757,0.41,-0.37,0.79,-16.20,-69.36,27.36,30.41
128767,0.52,-0.41,0.83,-13.66,-44.18,25.04,30.41
128777,0.58,-0.46,0.88,-9.69,-18.31,19.85,30.46
128787,0.58,-0.47,0.95,-10.47,-0.14,10.09,30.51
128797,0.54,-0.48,1.05,-12.98,6.18,-2.47,30.51
128807,0.45,-0.50,1.14,-10.73,4.46,-13.98,30.46
128817,0.39,-0.48,1.16,-5.39,4.11,-21.15,30.46
128827,0.34,-0.41,1.13,-2.98,11.15,-22.98,30.46
128837,0.27,-0.34,1.13,-2.35,11.39,-20.93,30.46
128847,0.24,-0.26,1.06,-3.66,13.88,-15.08,30.46
128857,0.24,-0.22,1.04,-6.95,17.11,-9.02,30.46
128867,0.25,-0.25,1.02,-12.92,19.05,-5.08,30.37
128877,0.24,-0.29,1.02,-23.10,17.94,-4.63,30.51
128887,0.23,-0.32,1.05,-31.74,13.85,-8.58,30.51
128897,0.19,-0.41,1.14,-33.02,9.59,-12.53,30.41
128907,0.16,-0.46,1.19,-26.61,7.33,-14.58,30.51
128917,0.12,-0.47,1.22,-17.79,7.31,-14.37,30.41
128927,0.08,-0.44,1.25,-10.82,3.94,-12.18,30.51
128937,0.08,-0.41,1.23,-6.46,-0.23,-9.57,30.51
128947,0.08,-0.38,1.19,-3.37,-3.45,-6.34,30.46
128957,0.12,-0.36,1.11,-2.64,-0.64,-3.63,30.46
128967,0.16,-0.36,1.10,-4.38,2.90,-2.37,30.46
128977,0.19,-0.39,1.09,-6.08,5.98,-4.41,30.55
128987,0.20,-0.40,1.09,-6.69,5.82,-9.71,30.55
128997,0.18,-0.40,1.11,-6.34,5.18,-13.13,30.46
129007,0.15,-0.39,1.14,-2.96,4.79,-13.94,30.46
129017,0.14,-0.38,1.14,0.79,5.44,-12.46,30.41
129027,0.14,-0.38,1.15,3.39,3.65,-10.14,30.51
129037,0.16,-0.39,1.14,5.30,0.41,-9.97,30.41
129047,0.19,-0.39,1.11,5.80,-4.44,-11.48,30.41
129057,0.22,-0.39,1.06,4.70,-6.98,-13.53,30.51
129067,0.23,-0.38,1.05,4.66,-6.66,-15.79,30.41
129077,0.24,-0.38,1.03,5.24,-3.68,-17.74,30.37
129087,0.23,-0.38,1.04,5.88,-2.93,-19.79,30.46
129097,0.22,-0.37,1.03,6.55,-3.07,-21.56,30.55
129107,0.21,-0.38,1.04,7.83,-5.25,-21.85,30.46
129117,0.22,-0.38,1.03,8.43,-8.29,-21.98,30.46
129127,0.23,-0.36,1.01,6.69,-10.84,-22.82,30.46
129137,0.26,-0.36,0.98,4.90,-12.73,-23.50,30.46
129147,0.29,-0.37,0.97,2.90,-13.94,-25.63,30.55
129157,0.33,-0.39,0.95,2.18,-13.19,-28.15,30.41
129167,0.37,-0.40,0.92,2.18,-8.76,-31.10,30.41
129177,0.38,-0.41,0.90,1.95,-1.51,-34.06,30.51
129187,0.38,-0.40,0.89,1.30,6.35,-37.65,30.51
129197,0.34,-0.39,0.93,0.43,10.26,-39.83,30.41
129207,0.31,-0.38,0.94,-0.90,11.85,-42.17,30.37
129217,0.28,-0.37,0.96,-0.93,9.74,-44.09,30.41
129227,0.27,-0.35,0.95,-0.61,8.35,-44.66,30.55
129237,0.52,-0.65,0.26,5.92,59.21,-37.80,30.55
129247,0.14,-0.34,1.02,-16.63,20.35,-43.33,30.55
129257,0.38,-0.40,0.97,-19.71,15.10,-45.47,30.55
129267,0.34,-0.42,0.94,-10.15,6.23,-48.32,30.46
129277,0.34,-0.43,0.93,-4.38,1.39,-52.02,30.46
129287,0.34,-0.43,0.94,-2.76,-0.69,-57.80,30.46
129297,0.40,-0.41,0.93,-8.72,5.45,-60.32,30.41
129307,0.33,-0.42,0.93,-2.08,11.48,-61.79,30.51
129317,0.33,-0.46,0.94,4.70,15.48,-62.27,30.51
129327,0.31,-0.45,1.01,7.77,12.64,-64.47,30.51
129337,0.30,-0.42,1.03,4.82,15.73,-69.02,30.55
129347,0.25,-0.40,1.04,0.81,15.68,-70.18,30.41
129357,0.25,-0.39,1.02,-4.37,22.82,-69.53,30.51
129367,0.25,-0.39,1.01,-12.29,33.24,-68.50,30.46
129377,0.20,-0.38,1.06,-4.41,25.37,-64.89,30.46
129387,0.22,-0.39,1.06,1.48,25.88,-63.11,30.55
129397,0.22,-0.41,1.09,6.14,21.76,-63.21,30.46
129407,0.23,-0.41,1.08,5.77,19.83,-64.12,30.46
129417,0.25,-0.40,1.07,1.71,18.67,-65.36,30.46
129427,0.25,-0.39,1.07,-1.39,17.48,-65.60,30.46
129437,0.26,-0.42,1.05,0.44,17.11,-65.80,30.41
129447,0.29,-0.43,1.02,5.30,18.40,-66.81,30.51
129457,0.30,-0.45,0.97,9.19,19.73,-68.85,30.51
129467,0.33,-0.45,0.92,10.40,24.20,-71.98,30.41
129477,0.32,-0.43,0.91,9.77,30.75,-75.24,30.41
129487,0.29,-0.41,0.90,8.64,36.92,-76.81,30.41
129497,0.25,-0.42,0.91,7.94,37.02,-78.21,30.51
129507,0.23,-0.42,0.91,7.69,31.13,-82.31,30.55
129517,0.20,-0.41,0.90,4.82,23.53,-86.95,30.46
129527,0.19,-0.39,0.89,2.67,18.47,-89.89,30.46
129537,0.19,-0.36,0.87,1.68,21.33,-90.63,30.46
129547,0.16,-0.35,0.88,0.87,27.66,-87.21,30.46
129557,0.14,-0.36,0.90,0.26,32.34,-83.31,30.46
129567,0.14,-0.37,0.92,-0.81,32.44,-81.68,30.46
129577,0.14,-0.38,0.93,-2.90,30.32,-81.54,30.41
129587,0.16,-0.41,0.94,-1.88,28.17,-83.27,30.51
129597,0.14,-0.42,0.96,-0.75,26.67,-86.64,30.41
129607,0.11,-0.40,0.98,-0.89,20.61,-92.11,30.41
129617,0.07,-0.39,1.00,-3.91,12.15,-99.63,30.51
129627,-0.02,-0.35,1.00,-9.82,1.21,-106.34,30.51
129637,-0.09,-0.31,1.01,-17.91,-8.73,-109.11,30.55
129647,-0.14,-0.27,1.02,-19.63,-12.67,-105.16,30.46
129657,-0.19,-0.24,1.07,-21.63,-11.08,-97.44,30.55
129667,-0.18,-0.20,1.11,-16.35,-4.67,-84.08,30.46
129677,-0.16,-0.22,1.13,-12.21,7.34,-68.23,30.37
129687,-0.12,-0.27,1.18,-7.69,14.81,-55.86,30.37
129697,-0.05,-0.33,1.17,-3.07,20.20,-49.39,30.46
129707,0.02,-0.38,1.15,1.73,21.80,-47.89,30.55
129717,0.09,-0.39,1.09,7.07,20.41,-49.80,30.51
129727,0.16,-0.38,1.04,10.69,16.60,-55.65,30.51
129737,0.19,-0.38,0.96,10.03,10.84,-61.60,30.51
129747,0.22,-0.36,0.88,6.34,7.30,-67.04,30.41
129757,0.23,-0.33,0.84,0.98,10.52,-70.63,30.41
129767,0.24,-0.32,0.84,-3.28,15.39,-73.15,30.55
129777,0.22,-0.31,0.83,-5.27,23.97,-75.18,30.41
129787,0.22,-0.32,0.86,-5.73,32.06,-76.84,30.46
129797,0.19,-0.31,0.87,-5.02,39.91,-77.60,30.46
129807,0.15,-0.32,0.89,-5.76,45.62,-76.96,30.46
129817,0.12,-0.33,0.93,-4.66,46.41,-75.54,30.46
129827,0.10,-0.35,0.95,-3.53,43.22,-74.43,30.46
129837,0.10,-0.34,0.95,-2.66,33.73,-75.73,30.46
129847,0.13,-0.31,0.89,-4.02,22.21,-78.53,30.46
129857,0.18,-0.29,0.85,-7.83,19.18,-80.32,30.51
129867,0.20,-0.31,0.82,-10.34,24.82,-80.84,30.51
129877,0.22,-0.33,0.83,-10.06,34.82,-81.83,30.41
129887,0.20,-0.33,0.84,-9.47,44.79,-82.23,30.41
129897,0.16,-0.32,0.86,-9.98,50.64,-81.94,30.41
129907,0.11,-0.32,0.87,-10.93,49.54,-80.96,30.41
129917,0.09,-0.32,0.89,-11.01,45.80,-78.27,30.32
129927,0.08,-0.30,0.86,-12.34,43.86,-73.59,30.46
129937,0.09,-0.30,0.86,-14.76,45.31,-69.73,30.46
129947,0.08,-0.29,0.90,-16.41,46.56,-66.58,30.46
129957,0.07,-0.32,0.92,-16.18,50.17,-63.80,30.46
129967,0.06,-0.33,0.94,-15.37,52.44,-61.68,30.55
129977,0.08,-0.29,0.94,-13.18,52.55,-60.85,30.46
129987,0.06,-0.36,0.93,-14.09,41.98,-66.35,30.55
129997,0.03,-0.36,0.93,-19.28,22.90,-73.85,30.51
130007,0.06,-0.34,0.92,-20.37,6.02,-77.57,30.51
130017,0.14,-0.31,0.86,-23.86,1.22,-78.21,30.51
130027,0.19,-0.35,0.88,-28.05,2.17,-77.69,30.51
130037,0.25,-0.41,0.90,-29.25,10.20,-78.09,30.60
130047,0.25,-0.48,0.95,-29.31,16.98,-81.30,30.41
130057,0.23,-0.53,1.00,-29.86,23.39,-87.34,30.41
130067,0.20,-0.54,1.03,-26.61,25.82,-93.50,30.46
130077,0.14,-0.53,1.04,-21.30,27.33,-97.77,30.46
130087,0.09,-0.51,1.00,-15.94,30.53,-101.88,30.46
130097,0.02,-0.44,0.96,-14.85,34.64,-100.23,30.46
130107,-0.01,-0.39,0.93,-13.39,37.86,-95.79,30.46
130117,-0.01,-0.37,0.92,-14.18,41.97,-91.66,30.55
130127,-0.02,-0.37,0.93,-20.03,41.92,-91.48,30.37
130137,-0.05,-0.38,0.97,-26.05,38.84,-92.05,30.41
130147,-0.07,-0.41,1.02,-26.23,34.31,-91.30,30.60
130157,-0.06,-0.41,1.01,-25.74,37.30,-89.04,30.51
130167,-0.05,-0.43,1.03,-25.59,43.86,-85.47,30.51
130177,-0.04,-0.45,1.05,-21.31,48.17,-83.24,30.41
130187,-0.04,-0.46,1.06,-19.92,49.28,-85.05,30.60
130197,-0.07,-0.44,1.06,-19.18,45.69,-88.64,30.55
130207,-0.11,-0.40,1.08,-19.05,42.60,-88.24,30.46
130217,-0.14,-0.39,1.09,-16.89,40.40,-84.41,30.46
130227,-0.15,-0.40,1.07,-15.92,41.11,-78.90,30.46
130237,-0.13,-0.41,1.08,-13.40,38.70,-76.08,30.55
130247,-0.11,-0.41,1.08,-11.94,34.09,-75.80,30.55
130257,-0.06,-0.38,1.03,-12.05,33.21,-78.02,30.55
130267,-0.06,-0.36,1.02,-13.92,37.07,-79.37,30.46
130277,-0.07,-0.35,1.04,-14.02,48.03,-76.50,30.51
130287,-0.07,-0.38,1.09,-12.89,57.53,-73.98,30.51
130297,-0.10,-0.39,1.14,-11.34,62.23,-74.35,30.51
130307,-0.12,-0.42,1.18,-9.11,63.71,-73.59,30.51
130317,-0.15,-0.42,1.23,-5.91,55.85,-75.56,30.41
130327,-0.18,-0.41,1.25,-2.82,48.87,-76.52,30.46
130337,-0.20,-0.38,1.23,0.08,39.71,-76.63,30.51
130347,-0.22,-0.36,1.22,1.74,36.96,-73.02,30.46
130357,-0.23,-0.35,1.23,3.25,33.40,-68.73,30.46
130367,-0.22,-0.34,1.23,4.46,30.70,-64.75,30.46
130377,-0.23,-0.37,1.22,4.75,25.36,-62.53,30.55
130387,-0.24,-0.38,1.22,6.20,18.44,-61.53,30.55
130397,-0.24,-0.37,1.20,8.26,9.77,-60.03,30.46
130407,-0.23,-0.35,1.17,11.02,1.47,-59.85,30.41
130417,-0.23,-0.33,1.13,11.48,-3.86,-58.90,30.51
130427,-0.22,-0.30,1.07,11.31,-4.37,-56.29,30.51
130437,-0.21,-0.28,1.06,9.92,-1.69,-51.45,30.51
130447,-0.19,-0.29,1.07,9.56,2.46,-47.25,30.41
130457,-0.17,-0.31,1.08,8.18,5.19,-45.50,30.55
130467,-0.17,-0.32,1.08,8.78,5.54,-43.56,30.60
130477,-0.15,-0.33,1.08,10.82,4.93,-41.60,30.46
130487,-0.11,-0.33,1.03,13.91,6.50,-40.55,30.55
130497,-0.09,-0.31,0.99,15.22,10.03,-40.05,30.46
130507,-0.07,-0.29,0.95,14.50,14.29,-40.72,30.46
130517,-0.09,-0.27,0.91,12.06,18.08,-40.47,30.55
130527,-0.12,-0.26,0.90,9.88,18.85,-39.27,30.46
130537,-0.14,-0.25,0.88,8.12,18.31,-37.27,30.55
130547,-0.15,-0.24,0.88,5.22,16.18,-33.94,30.46
130557,-0.13,-0.22,0.86,2.29,17.19,-31.65,30.51
130567,-0.11,-0.23,0.89,-2.47,17.45,-28.73,30.41
130577,-0.10,-0.22,0.92,-4.69,19.91,-26.29,30.41
130587,-0.08,-0.23,0.95,-6.05,22.40,-24.58,30.51
130597,-0.09,-0.27,0.95,-6.31,24.38,-24.79,30.51
130607,-0.10,-0.26,1.04,-9.15,11.24,-26.53,30.51
130617,-0.08,-0.28,0.98,-3.94,4.87,-29.08,30.51
130627,-0.07,-0.26,0.96,-7.07,2.00,-28.34,30.55
130637,-0.02,-0.24,0.92,-5.88,9.76,-26.89,30.46
130647,-0.00,-0.28,0.95,-8.05,18.49,-26.11,30.55
130657,0.00,-0.30,0.99,-10.20,19.80,-30.15,30.46
130667,-0.06,-0.32,1.01,-12.03,16.82,-36.81,30.46
130677,-0.08,-0.32,1.02,-13.74,8.15,-40.92,30.46
130687,-0.12,-0.31,1.05,-13.30,2.40,-44.92,30.60
130697,-0.12,-0.29,1.10,-12.29,-11.95,-47.50,30.51
130707,-0.04,-0.28,0.98,-9.62,-4.21,-43.48,30.41
130717,-0.06,-0.29,0.99,-9.68,-5.56,-42.56,30.51
130727,-0.03,-0.31,0.98,-6.50,-2.81,-40.05,30.51
130737,-0.02,-0.30,0.96,-4.40,9.73,-36.72,30.51
130747,-0.07,-0.30,1.02,-4.17,13.54,-33.80,30.51
130757,-0.08,-0.31,1.04,-3.30,15.19,-33.80,30.46
130767,-0.12,-0.30,1.05,-4.64,7.24,-35.76,30.55
130777,-0.15,-0.29,1.05,-4.81,-0.70,-36.00,30.46
130787,-0.90,-0.15,1.19,-4.17,13.71,-22.79,30.46
130797,-0.91,-0.02,1.10,13.27,-9.80,7.10,30.46
130807,-0.78,-0.18,1.10,5.79,-65.85,18.98,30.55
130817,-0.38,-0.23,0.95,-8.90,-64.90,24.11,30.41
130827,0.05,-0.28,0.82,-13.28,-52.93,19.53,30.60
130837,0.24,-0.36,0.81,-20.27,-32.82,5.13,30.51
130847,0.20,-0.39,0.97,-22.78,-23.13,-10.89,30.51
130857,0.02,-0.41,1.15,-21.83,-27.05,-22.23,30.51
130867,-0.13,-0.38,1.25,-16.79,-33.47,-26.11,30.51
130877,-0.14,-0.35,1.22,-10.79,-34.66,-23.88,30.51
130887,-0.07,-0.31,1.14,-6.87,-33.74,-21.91,30.55
130897,0.01,-0.26,1.03,-7.50,-28.49,-19.91,30.46
130907,0.06,-0.22,0.95,-11.68,-20.60,-16.27,30.46
130917,0.13,-0.17,0.89,-14.26,0.08,-8.26,30.55
130927,0.15,-0.21,0.94,-13.28,18.95,-1.56,30.46
130937,0.15,-0.25,0.99,-11.86,32.32,1.86,30.55
130947,0.03,-0.30,1.07,-14.93,21.74,-0.66,30.51
130957,0.06,-0.26,1.06,-15.66,12.98,-2.21,30.51
130967,0.08,-0.30,1.04,-11.77,1.37,-2.82,30.32
130977,0.10,-0.32,1.03,-8.11,-8.21,-2.05,30.51
130987,0.12,-0.32,1.01,-6.35,-9.15,-1.22,30.51
130997,0.12,-0.30,1.00,-7.13,-6.43,0.05,30.51
131007,0.10,-0.30,1.02,-7.65,-3.77,1.57,30.51
131017,0.09,-0.29,1.03,-6.06,-2.72,3.28,30.55
131027,0.07,-0.30,1.02,-6.00,-2.31,3.88,30.46
131037,0.06,-0.29,1.05,-7.88,-7.85,0.85,30.55
131047,0.04,-0.29,1.05,-10.26,-13.19,-2.06,30.37
131057,0.01,-0.28,1.05,-11.31,-17.16,-3.10,30.46
131067,0.04,-0.30,1.02,-9.62,-15.71,-2.15,30.46
131077,0.06,-0.29,0.99,-7.94,-11.16,-1.56,30.46
131087,0.08,-0.27,0.95,-7.08,-6.46,-1.27,30.51
131097,0.09,-0.24,0.92,-8.09,0.29,-0.55,30.51
131107,0.09,-0.22,0.91,-11.85,6.14,1.53,30.51
131117,0.09,-0.23,0.93,-15.40,9.34,4.12,30.60
131127,0.07,-0.26,1.00,-18.78,5.19,5.97,30.60
131137,0.04,-0.33,1.08,-19.30,-9.74,5.24,30.51
131147,0.02,-0.37,1.09,-15.71,-21.54,4.31,30.46
131157,0.03,-0.39,1.14,-12.00,-27.85,1.08,30.46
131167,0.07,-0.38,1.12,-7.83,-25.16,0.79,30.55
131177,0.14,-0.41,1.15,-6.49,-19.01,0.79,30.46
131187,0.19,-0.37,1.13,-2.44,-9.82,-0.50,30.46
131197,0.19,-0.36,1.11,-0.29,-2.12,-0.96,30.46
131207,0.14,-0.33,1.08,0.72,-0.43,-3.25,30.46
131217,0.11,-0.31,1.06,-0.27,-2.00,-6.11,30.51
131227,0.08,-0.30,1.02,-3.74,-0.49,-7.74,30.51
131237,0.08,-0.29,1.01,-7.24,1.24,-7.39,30.41
131247,0.07,-0.30,1.01,-9.57,3.74,-6.38,30.51
131257,0.08,-0.31,1.03,-9.50,6.66,-3.63,30.60
131267,0.06,-0.30,1.02,-8.18,8.61,-0.63,30.32
131277,0.08,-0.27,1.00,-7.88,10.50,2.38,30.46
131287,0.10,-0.26,0.99,-10.05,12.17,4.96,30.55
131297,0.09,-0.26,0.99,-12.82,12.03,7.02,30.55
131307,0.10,-0.28,0.99,-14.23,16.37,9.01,30.46
131317,0.07,-0.33,1.04,-13.45,13.63,9.62,30.46
131327,0.08,-0.36,1.07,-7.65,9.73,9.56,30.46
131337,0.06,-0.37,1.05,-6.60,11.01,7.50,30.46
131347,0.07,-0.38,1.05,-2.89,10.27,6.20,30.55
131357,0.05,-0.36,1.01,-4.03,8.64,2.02,30.51
131367,0.04,-0.37,0.99,-4.99,7.33,-2.02,30.51
131377,0.03,-0.36,0.96,-5.07,9.11,-4.46,30.60
131387,0.03,-0.33,0.95,-5.76,10.24,-6.38,30.51
131397,0.03,-0.32,0.96,-7.08,9.73,-8.09,30.41
131407,0.02,-0.32,0.98,-9.80,5.45,-10.27,30.55
131417,0.03,-0.33,1.01,-10.47,0.61,-11.33,30.37
131427,0.03,-0.33,1.00,-8.31,-2.43,-11.94,30.55
131437,0.04,-0.35,1.01,-6.24,-3.57,-11.62,30.55
131447,0.05,-0.35,1.02,-4.00,-4.35,-11.07,30.46
131457,0.07,-0.35,0.99,-2.70,-3.07,-10.09,30.46
131467,0.08,-0.35,1.00,-2.21,-1.91,-9.86,30.46
131477,0.06,-0.35,1.02,-1.65,-6.58,-10.24,30.41
131487,0.04,-0.32,0.99,-3.19,-9.71,-10.35,30.51
131497,0.02,-0.30,1.00,-3.39,-16.93,-8.67,30.41
131507,0.03,-0.30,0.99,-4.69,-18.58,-7.51,30.41
131517,0.05,-0.31,1.01,-7.15,-18.98,-6.99,30.41
131527,0.09,-0.32,1.02,-9.39,-18.34,-6.96,30.41
131537,0.11,-0.33,1.00,-9.04,-13.16,-6.61,30.46
131547,0.12,-0.34,1.01,-7.92,-5.77,-6.49,30.46
131557,0.15,-0.34,0.99,-5.74,2.37,-6.32,30.55
131567,0.15,-0.34,0.98,-5.01,7.33,-6.26,30.46
131577,0.16,-0.34,0.99,-5.53,13.13,-6.96,30.46
131587,0.12,-0.35,0.93,-5.59,28.67,-7.77,30.46
131597,0.09,-0.32,1.07,-6.40,25.05,-5.37,30.37
131607,0.03,-0.32,1.06,-5.62,22.14,-4.93,30.51
131617,0.07,-0.34,1.04,-3.27,25.36,-5.01,30.51
131627,0.02,-0.36,1.12,-2.29,10.32,-6.37,30.41
131637,0.02,-0.34,1.08,-1.77,6.50,-7.80,30.51
131647,0.00,-0.35,1.09,0.81,-4.58,-8.50,30.51
131657,-0.02,-0.32,1.06,2.55,-11.36,-7.19,30.41
131667,-0.03,-0.30,1.00,3.95,-13.97,-3.50,30.46
131677,-0.02,-0.29,0.99,5.30,-11.59,0.27,30.46
131687,-0.05,-0.25,0.95,1.76,-12.34,2.96,30.46
131697,-0.03,-0.25,0.92,-0.73,-10.79,5.11,30.46
131707,-0.05,-0.25,0.92,-2.46,-10.12,7.97,30.55
131717,-0.05,-0.25,0.91,-5.65,-10.32,10.75,30.46
131727,-0.05,-0.25,0.90,-9.37,-8.99,14.46,30.55
131737,-0.04,-0.25,0.91,-13.40,-6.81,18.76,30.41
131747,-0.03,-0.27,0.93,-16.79,-4.32,23.04,30.41
131757,0.01,-0.29,0.92,-18.60,-0.93,26.66,30.51
131767,0.04,-0.32,0.94,-18.76,3.91,29.63,30.51
131777,0.07,-0.33,0.96,-19.16,5.62,30.58,30.51
131787,0.09,-0.34,0.97,-20.38,5.62,29.95,30.51
131797,0.10,-0.35,0.97,-21.30,3.91,29.56,30.46
131807,0.10,-0.35,0.99,-21.53,2.82,29.27,30.46
131817,0.13,-0.37,1.01,-20.93,2.70,28.41,30.46
131827,0.15,-0.38,1.01,-20.24,0.73,26.85,30.37
131837,0.17,-0.38,1.01,-21.27,-0.46,24.40,30.46
131847,0.18,-0.38,1.00,-21.92,-2.03,21.79,30.46
131857,0.18,-0.38,1.00,-22.14,-1.92,19.50,30.37
131867,0.18,-0.38,0.99,-21.77,-0.35,18.26,30.51
131877,0.18,-0.39,1.00,-22.06,2.67,17.86,30.51
131887,0.17,-0.39,1.00,-22.18,3.88,16.69,30.41
131897,0.17,-0.38,1.02,-22.90,3.19,15.28,30.41
131907,0.16,-0.38,1.01,-22.79,1.88,13.40,30.51
131917,0.16,-0.40,1.02,-22.41,2.18,12.05,30.41
131927,0.16,-0.40,1.02,-21.34,3.36,10.50,30.46
131937,0.15,-0.41,1.03,-21.39,3.01,8.14,30.46
131947,0.14,-0.42,1.03,-21.05,1.69,4.72,30.46
131957,0.15,-0.43,1.04,-21.01,0.32,-0.20,30.46
131967,0.15,-0.43,1.04,-21.08,-2.85,-3.62,30.46
