Timestamp,Acce_X,Acce_Y,Acce_Z,Gyro_X,Gyro_Y,Gyro_Z,Temp
52427,-0.12,-0.08,1.07,-0.18,-6.53,-1.71,33.38
52437,-0.13,-0.09,1.07,-1.60,-4.46,-1.66,33.38
52447,-0.14,-0.09,1.08,-2.32,-3.30,-1.19,33.38
52457,-0.14,-0.09,1.10,-2.58,-1.31,-0.50,33.38
52467,-0.15,-0.09,1.10,-1.27,-0.27,-1.15,33.57
52477,-0.18,-0.09,1.09,-0.78,-1.16,-1.42,33.47
52487,-0.21,-0.09,1.09,-0.09,-2.08,-0.58,33.57
52497,-0.24,-0.08,1.09,0.69,-3.19,0.79,33.47
52507,-0.25,-0.08,1.07,0.85,-4.37,2.50,33.38
52517,-0.28,-0.07,1.06,-0.11,-4.44,4.79,33.47
52527,-0.30,-0.07,1.06,-1.02,-3.82,7.16,33.38
52537,-0.30,-0.06,1.04,-1.07,-2.09,10.64,33.47
52547,-0.30,-0.06,1.03,-2.09,0.63,13.82,33.47
52557,-0.31,-0.06,1.04,-3.30,2.92,16.81,33.38
52567,-0.31,-0.07,1.05,-5.25,2.63,19.63,33.47
52577,-0.33,-0.07,1.08,-7.82,0.85,22.46,33.57
52587,-0.33,-0.08,1.10,-8.78,-5.94,24.09,33.47
52597,-0.31,-0.08,1.12,-8.72,-5.19,27.40,33.47
52607,-0.30,-0.09,1.12,-7.68,-7.47,28.93,33.47
52617,-0.29,-0.10,1.12,-6.31,-8.06,28.96,33.47
52627,-0.30,-0.10,1.14,-3.13,-4.81,30.21,33.47
52637,-0.30,-0.09,1.10,1.65,-3.15,31.04,33.38
52647,-0.33,-0.09,1.08,2.72,-0.50,32.50,33.28
52657,-0.35,-0.10,1.09,2.66,0.81,32.72,33.47
52667,-0.42,-0.08,1.06,1.92,0.95,35.33,33.38
52677,-0.47,-0.07,1.07,1.24,1.76,39.73,33.47
52687,-0.49,-0.06,1.05,0.52,4.37,45.11,33.47
52697,-0.49,-0.07,1.05,0.90,8.38,49.88,33.47
52707,-0.52,-0.08,1.04,1.98,8.75,53.92,33.38
52717,-0.54,-0.08,1.03,2.03,7.80,58.40,33.47
52727,-0.55,-0.09,1.02,1.22,7.80,62.34,33.38
52737,-0.56,-0.11,1.03,0.78,3.83,65.31,33.47
52747,-0.61,-0.10,1.02,1.15,0.84,71.28,33.38
52757,-0.61,-0.10,0.99,0.92,1.13,77.62,33.47
52767,-0.60,-0.11,0.99,-1.36,1.27,83.97,33.38
52777,-0.59,-0.11,1.01,-1.71,0.37,88.96,33.47
52787,-0.57,-0.13,1.00,-2.34,2.53,95.28,33.47
52797,-0.53,-0.15,1.02,-1.95,5.53,100.35,33.47
52807,-0.50,-0.18,1.00,-2.29,11.56,103.92,33.38
52817,-0.51,-0.20,1.02,-3.30,13.76,105.82,33.47
52827,-0.52,-0.19,1.05,-2.37,12.93,108.32,33.47
52837,-0.53,-0.21,1.04,-1.97,13.28,111.68,33.47
52847,-0.56,-0.20,1.01,0.52,13.31,117.80,33.28
52857,-0.55,-0.20,0.97,0.72,16.03,126.53,33.47
52867,-0.48,-0.23,0.96,-3.02,20.26,133.19,33.38
52877,-0.43,-0.25,1.02,-5.19,22.66,135.68,33.33
52887,-0.41,-0.26,1.06,-7.19,20.40,135.11,33.38
52897,-0.42,-0.27,1.09,-6.89,14.96,134.35,33.38
52907,-0.43,-0.27,1.05,-6.11,9.02,134.43,33.47
52917,-0.43,-0.27,1.02,-6.38,10.82,136.40,33.42
52927,-0.44,-0.28,1.01,-5.30,19.28,138.93,33.38
52937,-0.48,-0.30,0.98,-6.95,25.56,143.04,33.47
52947,-0.49,-0.31,0.99,-9.79,28.87,148.21,33.38
52957,-0.49,-0.34,1.01,-10.11,28.95,153.82,33.42
52967,-0.46,-0.37,0.98,-13.05,25.54,158.23,33.38
52977,-0.44,-0.38,0.97,-16.14,22.05,163.15,33.38
52987,-0.37,-0.42,0.97,-19.44,19.22,166.93,33.47
52997,-0.30,-0.45,0.98,-23.63,18.72,167.95,33.42
53007,-0.27,-0.46,1.03,-25.04,13.94,166.76,33.38
53017,-0.23,-0.49,1.03,-27.66,7.62,165.28,33.38
53027,-0.22,-0.49,1.08,-27.80,-0.75,163.79,33.38
53037,-0.22,-0.50,1.07,-26.87,-13.83,162.84,33.33
53047,-0.20,-0.47,1.03,-26.90,-25.88,163.42,33.47
53057,-0.16,-0.47,0.97,-24.20,-28.32,166.72,33.38
53067,-0.07,-0.49,0.90,-26.23,-20.87,169.53,33.38
53077,-0.01,-0.51,0.95,-27.92,-15.27,167.51,33.52
53087,0.01,-0.50,0.98,-30.53,-16.67,163.60,33.47
53097,0.05,-0.51,0.98,-34.17,-20.47,157.08,33.47
53107,0.03,-0.49,1.00,-32.84,-29.59,149.16,33.47
53117,-0.02,-0.43,0.95,-31.22,-36.24,146.41,33.33
53127,-0.02,-0.42,0.89,-30.69,-37.13,146.85,33.38
53137,-0.02,-0.41,0.85,-30.82,-30.67,147.57,33.57
53147,-0.01,-0.40,0.84,-34.98,-22.40,150.29,33.47
53157,0.02,-0.42,0.88,-38.56,-11.60,152.82,33.52
53167,0.05,-0.43,0.91,-41.56,-4.58,151.92,33.57
53177,0.07,-0.46,0.98,-47.02,-5.10,148.35,33.42
53187,0.03,-0.47,1.09,-49.33,-18.37,143.54,33.52
53197,0.04,-0.47,1.12,-47.94,-34.87,137.37,33.42
53207,0.05,-0.44,1.10,-43.15,-44.14,132.00,33.33
53217,0.02,-0.42,1.02,-34.08,-49.97,129.74,33.42
53227,0.05,-0.36,0.87,-29.79,-41.47,132.12,33.42
53237,0.10,-0.31,0.83,-29.65,-27.88,132.41,33.42
53247,0.11,-0.28,0.79,-35.11,-16.69,133.34,33.42
53257,0.14,-0.27,0.85,-44.58,-7.40,134.34,33.42
53267,0.17,-0.31,1.02,-50.70,-7.92,131.82,33.42
53277,0.21,-0.34,1.12,-50.95,-10.38,126.50,33.42
53287,0.22,-0.39,1.23,-50.24,-20.14,117.69,33.42
53297,0.17,-0.39,1.30,-44.95,-36.34,113.24,33.42
53307,0.21,-0.39,1.24,-32.73,-42.06,111.39,33.42
53317,0.32,-0.40,1.10,-18.44,-21.34,112.06,33.33
53327,0.41,-0.34,1.01,-10.50,12.37,107.69,33.42
53337,0.36,-0.29,1.01,-8.93,27.30,98.60,33.42
53347,0.24,-0.25,0.97,-13.94,21.02,91.56,33.42
53357,0.12,-0.23,0.96,-22.41,2.58,90.53,33.33
53367,0.15,-0.24,0.99,-29.77,-6.60,93.33,33.42
53377,0.23,-0.27,1.07,-33.48,-5.27,94.05,33.42
53387,0.28,-0.30,1.13,-31.76,-0.32,91.95,33.33
53397,0.28,-0.38,1.15,-25.04,0.81,89.53,33.42
53407,0.38,-0.30,1.16,-16.75,12.34,83.60,33.42
53417,0.38,-0.29,1.14,-10.95,10.92,71.53,33.42
53427,0.27,-0.24,1.04,-11.97,4.44,63.44,33.42
53437,0.17,-0.20,1.00,-16.67,1.21,62.18,33.33
53447,0.12,-0.19,1.02,-22.98,-0.50,65.40,33.42
53457,0.14,-0.21,1.08,-25.50,-1.95,67.33,33.42
53467,0.17,-0.23,1.11,-25.15,-2.52,66.89,33.33
53477,0.21,-0.23,1.13,-21.94,-0.75,66.63,33.33
53487,0.24,-0.23,1.12,-17.22,5.18,64.63,33.42
53497,0.26,-0.23,1.11,-12.09,14.50,60.95,33.52
53507,0.24,-0.21,1.08,-8.17,21.85,54.92,33.52
53517,0.16,-0.19,1.04,-8.46,20.29,50.23,33.42
53527,0.11,-0.18,0.99,-9.74,13.74,47.85,33.33
53537,0.06,-0.17,0.95,-13.59,6.37,48.41,33.42
53547,0.07,-0.19,0.92,-16.23,5.56,49.10,33.42
53557,0.11,-0.19,0.88,-18.60,12.05,48.69,33.42
53567,0.10,-0.18,0.89,-21.73,20.95,47.71,33.42
53577,0.09,-0.18,0.91,-24.38,20.09,46.29,33.42
53587,0.10,-0.16,0.94,-25.91,17.79,43.71,33.42
53597,0.05,-0.18,0.96,-26.46,6.32,41.45,33.33
53607,0.06,-0.19,0.94,-25.47,-4.96,36.58,33.42
53617,0.09,-0.19,0.86,-25.60,-2.41,34.84,33.42
53627,0.06,-0.17,0.86,-26.98,-1.80,35.73,33.33
53637,0.08,-0.18,0.86,-28.03,1.15,34.82,33.42
53647,0.11,-0.20,0.85,-30.76,10.20,35.10,33.42
53657,0.11,-0.20,0.90,-33.51,15.68,34.72,33.42
53667,0.09,-0.20,0.94,-35.05,13.07,34.26,33.42
53677,0.13,-0.23,0.97,-37.39,9.34,33.36,33.33
53687,0.11,-0.23,1.03,-38.78,-3.86,30.93,33.42
53697,0.11,-0.24,1.05,-38.61,-21.33,28.27,33.42
53707,0.17,-0.25,1.02,-40.17,-27.47,26.52,33.33
53717,0.22,-0.27,1.04,-42.78,-20.60,21.37,33.33
53727,0.27,-0.25,1.06,-44.49,-7.22,19.01,33.33
53737,0.24,-0.26,1.16,-43.22,7.25,14.81,33.52
53747,0.18,-0.26,1.19,-39.85,15.69,12.93,33.42
53757,0.13,-0.27,1.28,-36.72,13.01,12.11,33.33
53767,0.11,-0.29,1.31,-32.87,2.50,10.47,33.42
53777,0.14,-0.28,1.32,-31.15,-4.21,8.85,33.42
53787,0.17,-0.28,1.36,-27.88,-8.24,5.54,33.42
53797,0.20,-0.29,1.34,-23.34,-2.89,0.55,33.42
53807,0.18,-0.28,1.31,-19.92,4.73,-3.83,33.42
53817,0.15,-0.28,1.32,-14.21,12.96,-7.02,33.52
53827,0.07,-0.26,1.30,-9.97,16.78,-8.95,33.33
53837,-0.01,-0.24,1.31,-8.96,13.86,-7.77,33.42
53847,-0.06,-0.22,1.31,-9.36,5.76,-4.99,33.42
53857,-0.07,-0.22,1.29,-9.85,0.32,-1.59,33.24
53867,-0.04,-0.22,1.28,-8.75,-0.41,1.79,33.38
53877,-0.01,-0.23,1.26,-7.15,1.05,4.24,33.38
53887,0.03,-0.25,1.25,-5.68,2.75,3.98,33.47
53897,0.06,-0.27,1.26,-3.83,1.48,0.61,33.47
53907,0.05,-0.27,1.24,-1.45,5.50,-2.75,33.38
53917,0.02,-0.27,1.23,1.02,8.79,-4.60,33.38
53927,-0.03,-0.25,1.23,3.31,7.53,-4.49,33.38
53937,-0.06,-0.25,1.22,4.52,1.79,-4.18,33.47
53947,-0.05,-0.24,1.18,5.45,-4.35,-2.56,33.28
53957,-0.03,-0.23,1.14,6.56,-6.90,-0.56,33.38
53967,0.01,-0.23,1.11,7.34,-5.39,0.32,33.38
53977,0.06,-0.24,1.09,7.10,-2.56,-0.35,33.38
53987,0.10,-0.25,1.09,6.38,1.11,-5.13,33.28
53997,0.08,-0.26,1.08,4.93,5.36,-9.54,33.38
54007,0.04,-0.25,1.09,6.27,7.37,-12.72,33.47
54017,-0.02,-0.23,1.08,8.26,7.85,-12.11,33.38
54027,-0.04,-0.22,1.08,8.34,8.55,-9.66,33.47
54037,-0.02,-0.23,1.10,7.69,6.17,-7.98,33.38
54047,0.03,-0.26,1.10,6.98,4.34,-9.79,33.47
54057,0.04,-0.27,1.10,8.11,1.89,-14.03,33.38
54067,0.02,-0.24,1.06,9.27,0.70,-17.40,33.38
54077,-0.00,-0.22,1.02,9.18,3.66,-18.67,33.38
54087,-0.03,-0.21,1.01,7.15,6.82,-19.51,33.38
54097,-0.07,-0.19,1.00,4.75,8.76,-18.02,33.47
54107,-0.09,-0.19,1.05,4.03,8.90,-14.69,33.38
54117,-0.07,-0.22,1.07,5.19,9.59,-12.52,33.38
54127,-0.05,-0.24,1.09,7.04,9.92,-14.15,33.38
54137,-0.06,-0.23,1.08,9.65,6.27,-16.70,33.47
54147,-0.09,-0.21,1.06,9.34,3.33,-16.89,33.38
54157,-0.10,-0.20,1.06,8.93,0.15,-15.37,33.38
54167,-0.08,-0.20,1.05,9.24,-0.96,-14.17,33.28
54177,-0.04,-0.20,1.05,9.76,0.00,-14.44,33.47
54187,-0.03,-0.19,1.01,10.92,4.03,-15.66,33.38
54197,-0.04,-0.19,0.99,8.95,9.82,-14.93,33.38
54207,-0.06,-0.17,1.01,7.69,13.54,-14.23,33.38
54217,-0.07,-0.17,1.04,3.98,13.74,-11.89,33.38
54227,-0.05,-0.18,1.10,2.95,8.95,-10.67,33.38
54237,0.01,-0.22,1.15,4.11,5.91,-11.88,33.38
54247,0.06,-0.22,1.15,7.45,6.12,-14.34,33.33
54257,0.08,-0.24,1.14,10.40,10.53,-18.15,33.38
54267,0.05,-0.24,1.16,17.68,10.70,-23.44,33.38
54277,-0.01,-0.21,1.07,19.02,10.47,-23.83,33.28
54287,-0.04,-0.19,1.05,19.04,8.72,-23.77,33.33
54297,-0.05,-0.18,1.01,16.63,5.47,-22.31,33.38
54307,-0.04,-0.17,1.00,13.82,5.24,-19.98,33.38
54317,0.01,-0.18,1.01,11.39,6.12,-19.53,33.47
54327,0.05,-0.19,1.02,10.63,6.92,-21.36,33.33
54337,0.07,-0.20,1.02,10.89,9.73,-24.11,33.38
54347,0.06,-0.19,1.02,13.16,12.26,-26.20,33.28
54357,0.04,-0.19,1.02,11.63,16.85,-27.33,33.38
54367,0.02,-0.19,1.03,10.92,19.42,-28.95,33.33
54377,-0.00,-0.19,1.04,9.45,17.08,-29.07,33.47
54387,-0.00,-0.19,1.06,9.25,14.72,-29.05,33.47
54397,0.02,-0.21,1.10,9.83,12.18,-30.12,33.28
54407,0.01,-0.20,1.10,13.59,9.92,-33.44,33.33
54417,-0.01,-0.18,1.04,14.73,12.92,-33.33,33.38
54427,0.00,-0.18,1.04,15.21,17.13,-33.33,33.38
54437,-0.02,-0.17,1.03,15.45,19.21,-35.53,33.38
54447,-0.05,-0.17,1.01,13.53,18.87,-35.86,33.33
54457,-0.07,-0.15,1.04,10.72,15.50,-35.91,33.38
54467,-0.07,-0.16,1.07,9.57,9.45,-36.00,33.28
54477,-0.05,-0.16,1.09,9.51,5.28,-36.31,33.38
54487,-0.04,-0.17,1.10,11.27,1.47,-38.09,33.33
54497,-0.04,-0.17,1.08,12.21,0.56,-39.40,33.38
54507,-0.05,-0.16,1.08,14.35,1.63,-40.00,33.38
54517,-0.05,-0.14,1.01,14.92,4.95,-38.92,33.33
54527,-0.03,-0.14,0.97,13.25,12.23,-37.36,33.24
54537,-0.02,-0.15,0.99,10.38,18.64,-37.45,33.33
54547,-0.02,-0.15,1.03,8.27,21.39,-38.89,33.33
54557,-0.03,-0.16,1.09,7.51,18.87,-39.92,33.33
54567,-0.03,-0.18,1.14,9.04,13.48,-41.39,33.33
54577,-0.02,-0.19,1.15,10.84,7.80,-43.42,33.42
54587,-0.03,-0.18,1.15,14.21,2.81,-45.97,33.33
54597,-0.05,-0.16,1.09,17.25,2.00,-45.97,33.33
54607,-0.04,-0.15,1.04,17.51,6.27,-43.42,33.42
54617,-0.01,-0.15,1.04,17.10,9.85,-41.33,33.33
54627,0.03,-0.17,1.06,15.54,11.73,-41.63,33.33
54637,0.07,-0.18,1.09,15.37,9.88,-44.81,33.33
54647,0.08,-0.20,1.08,17.74,5.73,-48.20,33.33
54657,0.12,-0.20,1.06,19.51,5.63,-51.91,33.33
54667,0.10,-0.20,1.04,20.85,8.90,-56.14,33.33
54677,0.07,-0.18,1.00,20.76,13.47,-58.12,33.33
54687,0.05,-0.18,0.99,17.39,19.56,-59.36,33.24
54697,0.02,-0.17,1.01,15.98,21.80,-61.22,33.33
54707,-0.01,-0.16,1.02,14.26,23.02,-61.42,33.33
54717,-0.00,-0.18,1.05,14.09,22.08,-60.70,33.33
54727,0.00,-0.19,1.09,14.14,21.24,-61.02,33.33
54737,0.02,-0.20,1.13,15.15,17.21,-63.57,33.33
54747,0.02,-0.19,1.11,17.36,13.36,-65.94,33.42
54757,0.01,-0.20,1.09,20.81,10.50,-66.50,33.33
54767,0.03,-0.20,1.04,23.39,10.17,-67.68,33.33
54777,0.05,-0.19,1.02,23.66,10.82,-70.73,33.33
54787,0.03,-0.19,1.01,22.26,11.01,-75.02,33.24
54797,-0.01,-0.18,0.98,20.26,10.09,-77.11,33.42
54807,-0.04,-0.18,0.99,18.09,9.56,-77.83,33.24
54817,-0.06,-0.17,0.99,16.12,11.48,-77.08,33.33
54827,-0.07,-0.18,1.01,15.83,15.04,-75.83,33.33
54837,-0.07,-0.19,1.06,15.60,15.97,-76.29,33.33
54847,-0.06,-0.19,1.05,16.99,12.03,-78.00,33.24
54857,-0.07,-0.19,1.04,16.85,9.68,-79.65,33.33
54867,-0.09,-0.18,1.05,17.39,4.27,-81.07,33.33
54877,-0.10,-0.19,1.04,16.09,1.24,-81.76,33.42
54887,-0.09,-0.19,1.02,15.13,3.27,-82.41,33.42
54897,-0.08,-0.17,1.00,15.15,11.56,-81.95,33.24
54907,-0.08,-0.17,1.00,16.75,22.61,-81.68,33.33
54917,-0.09,-0.16,1.01,17.33,31.34,-81.63,33.33
54927,-0.14,-0.17,1.05,18.73,34.11,-80.90,33.33
54937,-0.15,-0.17,1.08,19.16,32.34,-79.71,33.33
54947,-0.15,-0.18,1.09,18.75,24.31,-79.15,33.42
54957,-0.13,-0.20,1.09,18.40,16.73,-80.21,33.33
54967,-0.13,-0.20,1.09,19.33,10.14,-82.67,33.42
54977,-0.13,-0.18,1.08,19.25,6.06,-84.09,33.42
54987,-0.12,-0.18,1.05,19.56,3.79,-85.60,33.33
54997,-0.13,-0.19,1.05,18.89,4.21,-86.47,33.24
55007,-0.14,-0.19,1.04,18.53,5.77,-87.24,33.33
55017,-0.13,-0.18,1.06,19.24,7.21,-87.13,33.33
55027,-0.14,-0.20,1.06,20.21,10.72,-86.49,33.33
55037,-0.13,-0.21,1.05,20.99,12.32,-88.02,33.33
55047,-0.13,-0.21,1.04,21.31,16.20,-90.44,33.33
55057,-0.16,-0.20,1.06,21.95,15.94,-93.19,33.33
55067,-0.19,-0.18,1.02,21.74,17.57,-91.95,33.33
55077,-0.22,-0.16,1.04,20.99,16.29,-90.03,33.33
55087,-0.22,-0.18,1.05,19.94,14.98,-88.14,33.33
55097,-0.21,-0.19,1.05,20.03,11.44,-86.58,33.33
55107,-0.19,-0.19,1.05,18.85,13.02,-85.68,33.33
55117,-0.17,-0.21,1.08,20.81,9.51,-86.69,33.42
55127,-0.14,-0.22,1.07,20.93,10.26,-88.69,33.33
55137,-0.15,-0.21,1.07,21.28,6.49,-92.72,33.24
55147,-0.18,-0.20,1.06,21.73,5.66,-94.06,33.42
55157,-0.21,-0.20,1.06,24.49,3.97,-94.66,33.33
55167,-0.23,-0.20,1.02,23.66,5.44,-96.85,33.33
55177,-0.28,-0.18,1.04,23.28,3.19,-95.48,33.33
55187,-0.31,-0.17,1.04,23.45,-1.51,-92.81,33.33
55197,-0.29,-0.16,1.00,23.57,-3.77,-89.54,33.33
55207,-0.27,-0.16,0.98,22.27,-4.56,-88.92,33.24
55217,-0.26,-0.17,0.98,19.24,-4.87,-89.15,33.33
55227,-0.28,-0.17,1.01,17.24,-10.85,-89.92,33.24
55237,-0.31,-0.17,1.00,14.76,-19.79,-88.64,33.33
55247,-0.30,-0.16,1.02,14.49,-26.81,-86.32,33.33
55257,-0.25,-0.16,0.97,15.22,-28.00,-83.80,33.33
55267,-0.19,-0.18,0.92,13.40,-19.83,-83.68,33.33
55277,-0.18,-0.19,0.95,11.62,-15.28,-86.26,33.42
55287,-0.22,-0.19,0.96,11.50,-18.14,-87.33,33.42
55297,-0.25,-0.18,0.97,10.20,-22.26,-87.31,33.33
55307,-0.25,-0.17,0.94,10.46,-28.03,-87.27,33.33
55317,-0.25,-0.17,0.90,9.53,-27.98,-85.80,33.42
55327,-0.24,-0.17,0.87,6.79,-25.45,-84.72,33.33
55337,-0.23,-0.14,0.88,3.02,-24.27,-85.59,33.33
55347,-0.28,-0.13,0.89,-1.98,-31.02,-86.99,33.33
55357,-0.32,-0.11,0.92,-5.50,-40.23,-86.64,33.42
55367,-0.34,-0.08,0.93,-8.52,-42.99,-83.77,33.33
55377,-0.35,-0.07,0.94,-10.52,-39.39,-79.05,33.33
55387,-0.32,-0.09,0.97,-12.06,-34.14,-74.14,33.42
55397,-0.29,-0.11,0.99,-12.93,-32.29,-71.04,33.33
55407,-0.25,-0.12,1.03,-12.58,-33.79,-68.85,33.33
55417,-0.20,-0.14,1.06,-11.98,-36.21,-67.07,33.33
55427,-0.13,-0.17,1.04,-11.50,-31.89,-67.97,33.42
55437,-0.09,-0.16,1.03,-10.98,-18.15,-69.40,33.24
55447,-0.09,-0.16,1.07,-10.35,-6.69,-70.98,33.24
55457,-0.11,-0.16,1.09,-7.65,3.85,-72.11,33.33
55467,-0.14,-0.15,1.11,-6.03,6.90,-72.61,33.33
55477,-0.17,-0.14,1.11,-4.95,7.50,-72.09,33.28
55487,-0.18,-0.14,1.10,-2.72,12.21,-69.88,33.28
55497,-0.16,-0.14,1.09,-0.52,22.05,-67.24,33.38
55507,-0.14,-0.16,1.09,0.38,30.81,-67.40,33.28
55517,-0.18,-0.17,1.16,-0.56,27.34,-69.83,33.28
55527,-0.26,-0.16,1.20,0.26,13.80,-71.66,33.28
55537,-0.29,-0.14,1.18,2.17,2.93,-69.76,33.38
55547,-0.26,-0.13,1.12,5.62,4.08,-66.20,33.38
55557,-0.23,-0.13,1.07,7.89,14.11,-62.12,33.38
55567,-0.21,-0.13,1.06,6.49,23.66,-61.82,33.28
55577,-0.26,-0.12,1.08,4.29,22.34,-62.82,33.28
55587,-0.32,-0.12,1.12,2.46,13.68,-62.99,33.28
55597,-0.34,-0.12,1.12,3.15,5.74,-59.89,33.38
55607,-0.32,-0.11,1.11,6.05,5.30,-55.62,33.28
55617,-0.29,-0.11,1.07,6.84,10.41,-51.36,33.19
55627,-0.24,-0.12,1.06,6.37,14.24,-49.76,33.28
55637,-0.20,-0.13,1.04,5.10,16.20,-49.83,33.38
55647,-0.21,-0.14,1.07,3.40,12.15,-54.14,33.38
55657,-0.26,-0.13,1.11,1.76,3.34,-57.36,33.28
55667,-0.34,-0.10,1.11,2.85,-5.71,-56.53,33.28
55677,-0.35,-0.08,1.06,5.42,-6.41,-50.98,33.28
55687,-0.33,-0.07,1.00,8.05,-1.68,-46.18,33.28
55697,-0.30,-0.08,0.96,7.24,7.56,-41.94,33.47
55707,-0.27,-0.09,0.97,5.34,15.25,-38.29,33.38
55717,-0.25,-0.11,1.01,4.14,16.02,-37.95,33.38
55727,-0.25,-0.12,1.05,2.12,8.09,-40.38,33.38
55737,-0.28,-0.10,1.08,0.56,-8.44,-43.62,33.38
55747,-0.32,-0.07,1.06,1.28,-23.48,-42.96,33.28
55757,-0.32,-0.06,1.00,1.31,-26.63,-38.76,33.47
55767,-0.27,-0.07,0.96,1.56,-20.21,-34.92,33.38
55777,-0.23,-0.07,0.95,0.05,-9.79,-31.89,33.38
55787,-0.20,-0.07,0.97,-2.37,-2.11,-30.75,33.38
55797,-0.19,-0.08,1.00,-3.37,1.34,-31.21,33.38
55807,-0.19,-0.09,1.02,-2.09,1.60,-31.47,33.28
55817,-0.17,-0.09,0.99,-2.14,5.83,-32.29,33.38
55827,-0.20,-0.08,1.04,-2.93,5.10,-33.37,33.38
55837,-0.26,-0.06,1.04,-0.99,-1.08,-32.63,33.28
55847,-0.27,-0.05,1.01,-1.48,-1.95,-29.13,33.38
55857,-0.27,-0.05,1.00,-1.66,-1.63,-26.27,33.38
55867,-0.22,-0.06,1.00,-1.39,4.26,-22.38,33.28
55877,-0.18,-0.06,0.99,-1.95,12.47,-21.60,33.38
55887,-0.17,-0.07,1.02,-3.86,17.65,-22.67,33.28
55897,-0.21,-0.07,1.06,-4.73,16.72,-23.66,33.38
55907,-0.23,-0.07,1.09,-4.61,11.39,-24.46,33.28
55917,-0.28,-0.07,1.12,-4.14,4.47,-23.59,33.38
55927,-0.29,-0.06,1.09,-2.44,0.27,-21.27,33.38
55937,-0.29,-0.05,1.05,-0.40,1.19,-16.73,33.28
55947,-0.24,-0.05,1.02,0.08,9.13,-12.03,33.47
55957,-0.18,-0.05,1.02,-0.75,16.61,-11.27,33.38
55967,-0.16,-0.07,1.03,-3.62,20.03,-13.40,33.38
55977,-0.21,-0.07,1.10,-5.91,15.63,-16.17,33.28
55987,-0.25,-0.06,1.14,-4.95,6.34,-16.05,33.38
55997,-0.26,-0.05,1.11,-2.35,4.58,-13.82,33.38
56007,-0.27,-0.05,1.09,0.58,6.58,-10.58,33.38
56017,-0.23,-0.05,1.04,0.41,9.71,-8.58,33.38
56027,-0.23,-0.04,1.07,-1.18,11.97,-7.24,33.38
56037,-0.23,-0.05,1.07,-1.54,9.57,-5.95,33.38
56047,-0.20,-0.06,1.07,0.15,8.43,-5.71,33.38
56057,-0.19,-0.06,1.07,0.89,6.69,-5.22,33.38
56067,-0.18,-0.06,1.06,0.21,7.30,-5.57,33.38
56077,-0.20,-0.06,1.07,0.11,6.89,-5.74,33.38
56087,-0.21,-0.05,1.06,0.26,6.05,-5.86,33.38
56097,-0.24,-0.04,1.04,1.15,3.22,-4.84,33.38
56107,-0.23,-0.04,1.02,0.44,3.42,-2.21,33.28
56117,-0.21,-0.04,1.01,-0.61,4.76,-0.41,33.38
56127,-0.18,-0.04,1.02,-1.88,7.47,0.41,33.38
56137,-0.17,-0.05,1.02,-3.48,8.06,-0.26,33.38
56147,-0.19,-0.05,1.04,-3.50,3.31,-0.78,33.38
56157,-0.20,-0.04,1.03,-3.88,-1.47,0.02,33.38
56167,-0.19,-0.03,1.03,-4.05,-3.11,0.85,33.28
56177,-0.17,-0.04,1.02,-3.66,-2.56,1.57,33.33
56187,-0.15,-0.04,0.99,-4.31,1.24,2.63,33.28
56197,-0.14,-0.05,1.02,-5.39,3.16,2.90,33.28
56207,-0.13,-0.05,1.04,-5.82,0.90,2.09,33.28
56217,-0.15,-0.05,1.07,-6.61,-2.29,1.08,33.42
56227,-0.15,-0.04,1.07,-6.17,-5.76,0.96,33.38
56237,-0.15,-0.05,1.07,-5.56,-6.20,1.65,33.28
56247,-0.16,-0.05,1.06,-5.21,-6.41,2.67,33.28
56257,-0.14,-0.05,1.05,-5.24,-6.34,3.16,33.42
56267,-0.12,-0.05,1.04,-5.89,-6.38,4.06,33.38
56277,-0.09,-0.06,1.05,-6.53,-6.40,3.48,33.28
56287,-0.07,-0.06,1.05,-7.40,-5.05,1.63,33.38
56297,-0.07,-0.07,1.07,-7.13,-2.64,0.92,33.33
56307,-0.07,-0.07,1.08,-6.81,-0.15,-0.32,33.28
56317,-0.09,-0.07,1.11,-5.53,-0.76,-1.34,33.28
56327,-0.12,-0.06,1.10,-3.69,-3.45,-1.53,33.38
56337,-0.12,-0.05,1.08,-2.78,-4.67,-0.38,33.24
56347,-0.09,-0.05,1.06,-3.11,-4.00,0.27,33.38
56357,-0.06,-0.05,1.07,-5.73,-1.50,-0.81,33.38
56367,-0.07,-0.06,1.07,-3.76,-1.33,-2.15,33.38
56377,-0.09,-0.07,1.09,-3.27,-2.26,-3.36,33.24
56387,-0.11,-0.06,1.09,-1.34,-3.71,-3.86,33.28
56397,-0.10,-0.05,1.06,-0.44,-2.21,-3.02,33.38
56407,-0.10,-0.05,1.05,-0.34,-0.85,-2.93,33.28
56417,-0.11,-0.06,1.03,-1.86,0.40,-3.50,33.33
56427,-0.13,-0.06,1.04,-2.69,-1.22,-4.38,33.28
56437,-0.13,-0.06,1.03,-3.04,-3.39,-4.85,33.38
56447,-0.13,-0.05,1.01,-2.49,-2.49,-4.69,33.38
56457,-0.15,-0.06,1.01,-2.02,-1.80,-4.11,33.33
56467,-0.16,-0.04,0.98,-3.01,-0.89,-3.50,33.38
56477,-0.17,-0.04,0.97,-4.31,-1.34,-2.50,33.28
56487,-0.17,-0.03,0.96,-5.85,-2.20,-1.65,33.28
56497,-0.17,-0.04,0.96,-6.85,-2.64,-0.23,33.33
56507,-0.16,-0.04,0.97,-8.46,-2.35,1.15,33.28
56517,-0.16,-0.04,0.98,-10.05,-1.66,2.02,33.28
56527,-0.14,-0.05,1.02,-11.08,-2.60,2.34,33.38
56537,-0.14,-0.06,1.04,-11.45,-3.42,2.73,33.24
56547,-0.11,-0.07,1.06,-10.75,-4.55,3.19,33.33
56557,-0.08,-0.08,1.07,-9.73,-3.01,2.27,33.33
56567,-0.07,-0.08,1.06,-9.11,-1.16,0.03,33.33
56577,-0.09,-0.08,1.07,-8.09,0.44,-1.08,33.33
56587,-0.11,-0.07,1.08,-6.87,3.02,-0.17,33.24
56597,-0.11,-0.07,1.10,-5.25,3.91,0.34,33.42
56607,-0.11,-0.07,1.09,-4.64,2.64,-0.66,33.33
56617,-0.13,-0.06,1.08,-4.53,1.80,-1.47,33.33
56627,-0.16,-0.05,1.07,-5.34,2.55,0.67,33.24
56637,-0.16,-0.06,1.07,-5.19,4.40,3.37,33.24
56647,-0.13,-0.07,1.07,-5.86,5.95,4.46,33.24
56657,-0.11,-0.08,1.09,-6.02,3.66,4.11,33.33
56667,-0.09,-0.08,1.09,-5.30,1.63,3.24,33.33
56677,-0.07,-0.09,1.07,-4.17,1.30,0.84,33.33
56687,-0.08,-0.08,1.06,-4.69,1.45,-1.66,33.24
56697,-0.11,-0.07,1.07,-5.62,1.69,-2.53,33.33
56707,-0.14,-0.06,1.08,-6.85,3.83,-0.93,33.33
56717,-0.15,-0.07,1.11,-5.89,5.01,0.17,33.33
56727,-0.16,-0.07,1.13,-4.31,3.54,1.42,33.33
56737,-0.16,-0.06,1.14,-2.96,1.13,2.70,33.33
56747,-0.15,-0.07,1.11,-1.85,-1.98,3.91,33.33
56757,-0.13,-0.07,1.07,-1.65,-1.89,4.84,33.33
56767,-0.10,-0.07,1.05,-3.01,0.72,5.22,33.33
56777,-0.10,-0.07,1.07,-4.52,0.02,4.20,33.33
56787,-0.09,-0.08,1.07,-5.30,-0.09,3.34,33.33
56797,-0.07,-0.08,1.07,-5.63,0.46,2.09,33.33
56807,-0.08,-0.08,1.07,-4.67,1.22,1.01,33.24
56817,-0.08,-0.07,1.07,-3.94,2.31,0.31,33.33
56827,-0.09,-0.07,1.05,-4.21,4.96,0.18,33.24
56837,-0.11,-0.07,1.06,-4.24,5.86,0.47,33.33
56847,-0.11,-0.07,1.08,-4.09,5.24,0.73,33.33
56857,-0.11,-0.07,1.09,-3.07,3.27,-0.02,33.24
56867,-0.12,-0.07,1.08,-1.94,0.61,0.02,33.33
56877,-0.12,-0.07,1.06,-0.85,0.38,0.60,33.33
56887,-0.11,-0.07,1.06,-0.92,1.83,0.84,33.24
56897,-0.11,-0.07,1.05,-1.59,3.31,0.58,33.42
56907,-0.10,-0.07,1.05,-2.05,2.61,0.32,33.33
56917,-0.11,-0.07,1.05,-2.47,1.39,-0.21,33.33
56927,-0.11,-0.07,1.05,-2.98,0.21,-0.92,33.33
56937,-0.13,-0.06,1.03,-2.89,-0.14,-0.41,33.33
56947,-0.13,-0.06,1.04,-2.92,1.02,0.85,33.33
56957,-0.13,-0.06,1.03,-3.13,3.30,1.98,33.33
56967,-0.12,-0.07,1.04,-3.74,4.78,2.60,33.33
56977,-0.11,-0.08,1.04,-4.03,4.81,2.63,33.33
56987,-0.10,-0.08,1.05,-4.50,4.56,1.37,33.33
56997,-0.10,-0.08,1.06,-4.96,3.07,0.29,33.33
57007,-0.11,-0.08,1.03,-4.98,2.64,-0.21,33.42
57017,-0.11,-0.08,1.03,-5.15,3.22,0.37,33.24
57027,-0.10,-0.09,1.05,-4.29,4.89,0.24,33.33
57037,-0.09,-0.08,1.05,-4.21,7.47,-1.18,33.24
57047,-0.10,-0.08,1.04,-4.85,8.44,-1.89,33.42
57057,-0.11,-0.07,1.05,-6.76,9.22,-2.32,33.33
57067,-0.12,-0.06,1.04,-9.66,8.55,-3.60,33.33
57077,-0.15,-0.06,1.09,-7.82,6.84,-3.56,33.33
57087,-0.16,-0.06,1.08,-4.61,3.82,-1.59,33.33
57097,-0.15,-0.05,1.06,-3.34,3.53,0.50,33.33
57107,-0.14,-0.05,1.05,-3.69,4.23,1.22,33.24
57117,-0.14,-0.05,1.04,-4.29,3.97,1.50,33.33
57127,-0.14,-0.04,1.04,-5.11,4.87,1.97,33.33
57137,-0.15,-0.05,1.05,-5.02,5.68,2.93,33.33
57147,-0.14,-0.05,1.05,-5.30,7.19,4.21,33.33
57157,-0.13,-0.06,1.06,-6.11,7.53,5.02,33.33
57167,-0.12,-0.07,1.07,-7.07,5.48,4.37,33.33
57177,-0.12,-0.07,1.08,-6.38,2.32,3.66,33.33
57187,-0.12,-0.07,1.09,-5.36,1.04,3.80,33.33
57197,-0.11,-0.07,1.09,-4.40,1.34,4.46,33.42
57207,-0.10,-0.07,1.07,-4.20,2.27,3.83,33.33
57217,-0.09,-0.07,1.05,-5.01,3.24,2.93,33.33
57227,-0.09,-0.07,1.05,-4.93,6.08,2.78,33.33
57237,-0.10,-0.07,1.07,-4.46,7.76,2.55,33.24
57247,-0.10,-0.07,1.06,-4.24,8.87,2.44,33.24
57257,-0.10,-0.08,1.07,-5.50,7.53,1.59,33.33
57267,-0.11,-0.07,1.07,-6.31,3.69,0.84,33.24
57277,-0.12,-0.07,1.07,-6.26,2.20,0.55,33.33
57287,-0.12,-0.07,1.06,-5.54,1.48,0.52,33.24
57297,-0.12,-0.07,1.06,-5.11,3.16,1.16,33.33
57307,-0.12,-0.07,1.06,-5.85,4.37,1.60,33.24
57317,-0.11,-0.07,1.07,-6.43,3.65,1.30,33.33
57327,-0.12,-0.07,1.07,-6.27,1.88,-0.56,33.33
57337,-0.12,-0.07,1.05,-5.47,1.50,-0.90,33.33
57347,-0.15,-0.06,1.07,-4.44,0.60,0.11,33.42
57357,-0.14,-0.07,1.07,-3.91,2.99,1.27,33.33
57367,-0.14,-0.07,1.08,-3.98,3.44,1.63,33.33
57377,-0.13,-0.07,1.08,-3.83,2.20,1.56,33.33
57387,-0.12,-0.07,1.07,-2.85,1.40,1.11,33.33
57397,-0.12,-0.06,1.07,-3.04,2.31,0.29,33.42
57407,-0.13,-0.07,1.07,-2.20,1.97,-0.17,33.33
57417,-0.14,-0.06,1.06,-1.98,0.82,-0.15,33.42
