Timestamp,Acce_X,Acce_Y,Acce_Z,Gyro_X,Gyro_Y,Gyro_Z,Temp
449067,-0.07,-0.12,0.88,1.90,-2.95,-3.05,28.15
449077,-0.05,-0.12,0.87,-0.53,0.42,-3.56,28.25
449087,-0.07,-0.12,0.90,0.60,6.08,-3.72,28.11
449097,-0.12,-0.12,0.91,-1.86,4.21,-3.22,28.20
449107,-0.16,-0.12,0.92,-4.21,1.09,-3.09,28.15
449117,-0.15,-0.12,0.95,-3.54,0.24,-0.63,28.15
449127,-0.16,-0.12,0.96,-3.70,-3.09,1.53,28.20
449137,-0.17,-0.12,0.95,-0.31,0.53,4.42,28.20
449147,-0.18,-0.12,0.97,0.88,2.34,5.85,28.20
449157,-0.21,-0.12,0.98,2.74,4.73,8.15,28.06
449167,-0.26,-0.12,1.00,4.77,3.98,11.85,28.15
449177,-0.30,-0.11,1.00,6.01,0.33,17.40,28.11
449187,-0.29,-0.11,1.00,7.63,-3.73,23.96,28.11
449197,-0.28,-0.12,0.98,7.92,-5.01,28.44,28.15
449207,-0.29,-0.12,0.99,7.24,-5.59,31.30,28.15
449217,-0.31,-0.12,1.02,6.05,-8.30,33.74,28.15
449227,-0.35,-0.13,1.03,6.89,-11.85,35.92,28.20
449237,-0.40,-0.14,1.03,9.48,-16.20,37.92,28.15
449247,-0.46,-0.14,0.97,13.41,-18.37,41.99,28.15
449257,-0.51,-0.14,0.91,15.47,-18.00,48.54,28.15
449267,-0.54,-0.16,0.88,14.97,-13.30,56.84,28.11
449277,-0.58,-0.17,0.90,12.01,-11.76,63.82,28.11
449287,-0.62,-0.18,0.91,8.44,-13.22,72.66,28.15
449297,-0.65,-0.19,0.97,7.69,-21.60,82.24,28.15
449307,-0.64,-0.22,0.98,13.15,-33.35,91.34,28.11
449317,-0.63,-0.22,0.94,19.08,-36.12,101.16,28.20
449327,-0.56,-0.22,0.85,23.92,-24.99,111.76,28.20
449337,-0.45,-0.26,0.82,21.55,-3.03,121.02,28.15
449347,-0.40,-0.29,0.93,16.17,13.74,125.37,28.15
449357,-0.38,-0.32,1.04,12.79,18.59,122.57,28.11
449367,-0.39,-0.33,1.10,9.95,9.08,117.35,28.11
449377,-0.44,-0.35,1.09,14.78,-8.92,113.78,28.15
449387,-0.45,-0.37,1.06,23.02,-15.85,114.92,28.15
449397,-0.47,-0.38,1.01,31.41,-13.62,118.93,28.15
449407,-0.49,-0.37,0.97,34.15,-4.19,127.40,28.20
449417,-0.47,-0.36,0.94,31.94,4.08,134.23,28.20
449427,-0.47,-0.38,0.93,30.15,10.66,140.47,28.25
449437,-0.47,-0.40,0.92,28.99,12.10,146.85,28.15
449447,-0.46,-0.43,0.93,26.86,5.76,153.63,28.20
449457,-0.42,-0.44,0.97,27.70,-2.44,160.08,28.20
449467,-0.34,-0.47,0.90,29.34,-4.37,164.35,28.15
449477,-0.28,-0.48,0.86,29.65,-2.27,165.39,28.15
449487,-0.23,-0.49,0.84,30.20,6.11,166.47,28.20
449497,-0.19,-0.50,0.83,26.63,16.80,164.21,28.11
449507,-0.22,-0.52,0.86,22.53,24.20,161.99,28.11
449517,-0.28,-0.52,0.89,18.79,21.06,161.76,28.15
449527,-0.32,-0.49,0.87,19.10,11.17,162.79,28.15
449537,-0.32,-0.48,0.77,21.83,9.20,171.08,28.20
449547,-0.24,-0.50,0.70,20.31,12.49,179.38,28.11
449557,-0.16,-0.52,0.73,14.06,27.49,182.21,28.15
449567,-0.12,-0.55,0.82,6.02,39.63,182.35,28.15
449577,-0.15,-0.55,0.90,-1.40,37.14,179.63,28.15
449587,-0.21,-0.58,1.00,-3.95,22.07,177.27,28.20
449597,-0.27,-0.56,1.04,3.58,-5.31,176.64,28.20
449607,-0.27,-0.55,0.97,11.08,-25.05,185.73,28.25
449617,-0.13,-0.58,0.88,14.96,-25.29,191.95,28.25
449627,-0.03,-0.57,0.88,16.80,-12.53,194.60,28.11
449637,0.06,-0.55,0.85,16.02,7.39,197.40,28.11
449647,0.12,-0.52,0.88,8.21,20.66,194.22,28.15
449657,0.12,-0.52,0.97,1.26,25.24,190.97,28.15
449667,0.12,-0.56,1.08,-2.64,12.59,188.11,28.15
449677,0.15,-0.57,1.16,-3.31,-11.46,183.59,28.11
449687,0.20,-0.57,1.19,1.02,-30.63,177.72,28.11
449697,0.24,-0.56,1.14,8.92,-43.09,171.46,28.06
449707,0.28,-0.53,1.05,16.76,-44.06,165.05,28.15
449717,0.28,-0.50,0.97,22.55,-41.01,157.85,28.11
449727,0.25,-0.44,0.84,25.06,-38.20,150.95,28.20
449737,0.22,-0.39,0.69,24.44,-32.05,147.97,28.06
449747,0.23,-0.38,0.62,20.97,-21.82,146.06,28.06
449757,0.23,-0.35,0.62,16.79,-8.85,144.25,28.06
449767,0.23,-0.34,0.65,11.30,5.50,144.30,28.20
449777,0.24,-0.34,0.69,4.08,15.08,144.93,28.20
449787,0.23,-0.34,0.75,-1.05,17.73,142.46,28.15
449797,0.24,-0.33,0.80,-3.26,17.15,139.27,28.15
449807,0.23,-0.34,0.81,-2.27,7.98,132.02,28.20
449817,0.24,-0.30,0.76,-1.25,6.95,125.34,28.11
449827,0.21,-0.26,0.75,1.60,13.11,122.44,28.11
449837,0.23,-0.25,0.69,4.12,34.11,123.27,28.15
449847,0.23,-0.24,0.69,0.95,58.11,124.11,28.15
449857,0.19,-0.25,0.78,-6.37,71.00,122.56,28.11
449867,0.13,-0.25,0.86,-14.52,65.75,118.70,28.01
449877,0.07,-0.21,0.91,-20.85,43.27,113.73,28.15
449887,0.05,-0.23,0.87,-16.47,30.60,111.48,28.06
449897,0.05,-0.20,0.84,-8.05,28.21,112.37,28.15
449907,0.11,-0.16,0.79,2.92,44.93,117.06,28.11
449917,0.13,-0.17,0.71,5.89,68.27,123.68,28.11
449927,0.17,-0.19,0.73,0.33,83.23,128.08,28.15
449937,0.20,-0.23,0.80,-10.11,82.89,124.99,28.15
449947,0.21,-0.25,0.88,-18.78,66.98,118.25,28.15
449957,0.20,-0.25,0.92,-22.66,46.13,109.48,28.11
449967,0.22,-0.25,0.93,-20.46,31.77,100.32,28.11
449977,0.23,-0.23,0.90,-18.66,26.88,89.89,28.06
449987,0.19,-0.19,0.90,-21.34,27.85,81.49,28.06
449997,0.14,-0.18,0.96,-23.94,27.89,74.89,28.11
450007,0.08,-0.14,1.02,-27.56,20.52,70.50,28.11
450017,0.06,-0.13,1.05,-27.18,12.62,66.75,28.15
450027,0.05,-0.14,1.02,-17.70,14.54,63.14,28.15
450037,0.05,-0.16,0.90,-4.34,28.50,62.57,28.25
450047,0.07,-0.17,0.79,4.53,53.44,61.39,28.20
450057,0.08,-0.08,0.72,1.42,71.55,51.06,28.20
450067,-0.08,-0.03,0.82,-9.85,71.21,43.44,28.15
450077,-0.28,0.02,0.87,-20.42,35.99,42.61,28.06
450087,-0.30,-0.03,0.81,-23.89,-5.51,55.05,28.29
450097,-0.10,-0.10,0.68,-22.16,0.76,60.79,28.11
450107,-0.07,-0.09,0.77,-24.10,13.06,61.63,28.20
450117,-0.05,-0.06,0.86,-29.09,29.31,61.72,28.06
450127,-0.08,-0.04,0.93,-37.95,24.92,53.10,28.15
450137,-0.22,-0.04,1.01,-42.73,7.30,50.34,28.06
450147,-0.32,-0.07,1.09,-37.96,-32.34,54.12,28.11
450157,-0.28,-0.07,1.03,-28.30,-60.68,60.90,28.15
450167,-0.16,-0.07,0.94,-20.00,-60.63,68.70,28.06
450177,-0.08,-0.09,0.89,-15.27,-45.15,74.62,28.11
450187,0.01,-0.07,0.83,-15.75,-18.13,78.54,28.11
450197,0.10,-0.07,0.83,-18.64,5.71,74.13,28.11
450207,0.09,-0.09,0.89,-21.03,19.01,67.10,28.25
450217,0.06,-0.10,0.95,-19.85,15.82,58.36,28.06
450227,0.05,-0.11,0.92,-15.63,10.73,50.33,28.11
450237,0.03,-0.10,0.88,-14.27,5.56,42.77,28.11
450247,0.01,-0.07,0.84,-14.56,7.53,36.33,28.15
450257,-0.06,-0.04,0.88,-20.46,8.72,34.64,28.06
450267,-0.12,-0.04,1.00,-25.71,1.31,34.23,28.15
450277,-0.12,-0.05,1.06,-28.90,-10.10,34.45,28.11
450287,-0.10,-0.05,1.09,-24.29,-16.72,33.90,28.11
450297,-0.06,-0.09,1.05,-14.67,-13.60,33.31,28.06
450307,-0.04,-0.08,0.99,-8.67,-7.34,31.57,28.06
450317,-0.04,-0.07,0.99,-5.34,-0.85,29.13,27.97
450327,-0.07,-0.05,0.98,-5.40,-2.63,27.86,28.11
450337,-0.09,-0.06,0.97,-6.15,-8.36,27.69,28.06
450347,-0.07,-0.07,0.95,-5.21,-12.37,28.31,28.06
450357,-0.04,-0.08,0.92,-4.82,-10.80,26.88,28.06
450367,-0.02,-0.08,0.95,-4.36,-5.77,23.46,28.20
450377,-0.02,-0.06,0.97,-2.79,-5.67,18.81,28.11
450387,-0.09,-0.04,0.94,-2.29,-11.01,15.98,28.15
450397,-0.09,-0.05,0.90,-1.60,-11.60,16.12,28.15
450407,-0.10,-0.04,0.90,-1.95,-10.76,14.26,28.01
450417,-0.11,-0.03,0.91,-3.53,-4.61,16.01,28.11
450427,-0.11,-0.03,0.94,-8.11,-2.50,18.96,28.15
450437,-0.10,-0.05,1.02,-8.89,-4.89,19.82,28.06
450447,-0.08,-0.06,1.04,-6.30,-10.13,17.49,28.15
450457,-0.07,-0.06,1.02,-0.91,-14.63,13.85,28.20
450467,-0.08,-0.04,0.97,5.65,-12.82,13.11,28.11
450477,-0.09,-0.04,0.94,7.35,-8.46,15.38,28.15
450487,-0.08,-0.04,0.97,5.93,-9.02,14.61,28.06
450497,-0.07,-0.04,0.99,4.19,-10.60,13.00,28.15
450507,-0.07,-0.05,0.97,5.38,-12.55,12.36,28.11
450517,-0.05,-0.05,0.94,7.15,-9.05,12.51,28.06
450527,-0.03,-0.05,0.94,8.90,-4.60,11.46,28.15
450537,-0.03,-0.04,0.95,9.11,-4.07,10.57,28.15
450547,-0.01,-0.06,0.94,9.31,-7.88,8.31,28.11
450557,-0.00,-0.05,0.91,10.90,-8.95,6.47,28.11
450567,0.01,-0.05,0.89,11.28,-9.43,6.15,28.15
450577,0.05,-0.06,0.91,9.95,-11.44,3.66,28.15
450587,0.06,-0.06,0.90,9.11,-14.98,-1.18,28.11
450597,0.07,-0.06,0.87,9.84,-17.23,-5.56,28.01
450607,0.05,-0.05,0.81,10.25,-16.86,-8.73,28.11
450617,0.05,-0.03,0.79,7.57,-9.85,-9.27,28.15
450627,0.06,-0.03,0.82,3.42,-2.85,-9.76,28.15
450637,0.06,-0.04,0.86,-1.63,2.49,-10.48,28.11
450647,0.07,-0.06,0.91,-5.25,3.31,-12.69,28.11
450657,0.07,-0.09,0.96,-2.69,-1.70,-19.88,28.06
450667,0.04,-0.07,0.90,2.11,-1.01,-23.86,28.06
450677,-0.00,-0.05,0.92,3.30,-0.95,-25.60,28.15
450687,-0.04,-0.04,0.96,6.04,1.13,-24.84,28.20
450697,-0.06,-0.02,0.97,5.32,-0.74,-23.45,28.11
450707,-0.05,-0.03,0.96,4.85,-3.24,-22.48,28.15
450717,-0.03,-0.03,0.94,5.37,-2.13,-21.78,28.06
450727,0.00,-0.03,0.96,4.90,-1.39,-21.31,28.01
450737,0.03,-0.04,0.99,5.68,-3.85,-23.34,28.11
450747,0.05,-0.06,1.01,7.67,-6.80,-28.46,28.20
450757,0.02,-0.07,0.97,12.57,-11.21,-31.91,28.06
450767,-0.01,-0.05,0.91,15.56,-8.86,-30.57,27.97
450777,0.01,-0.06,0.91,13.34,-4.10,-28.76,28.01
450787,0.04,-0.06,0.97,10.52,-5.47,-29.30,28.20
450797,0.07,-0.09,1.00,7.02,-10.40,-32.57,28.06
450807,0.13,-0.12,1.02,8.36,-12.84,-33.90,28.06
450817,0.17,-0.13,1.04,13.76,-17.10,-40.63,28.15
450827,0.18,-0.15,1.02,18.15,-16.38,-46.37,28.11
450837,0.15,-0.16,1.00,23.08,-17.95,-54.37,28.11
450847,0.09,-0.13,0.93,25.63,-17.83,-59.49,28.15
450857,0.05,-0.11,0.89,23.80,-16.12,-61.38,28.06
450867,0.01,-0.10,0.92,22.82,-10.87,-60.54,28.15
450877,-0.02,-0.08,0.93,22.11,-8.40,-57.86,28.11
450887,-0.02,-0.08,0.92,19.09,-9.21,-54.72,28.06
450897,0.01,-0.10,0.94,17.82,-12.37,-53.43,28.15
450907,0.05,-0.10,0.93,17.95,-17.24,-53.31,28.15
450917,0.09,-0.12,0.91,18.28,-19.63,-53.20,28.20
450927,0.14,-0.15,0.93,18.71,-23.85,-54.78,28.11
450937,0.20,-0.16,0.90,19.05,-27.47,-59.98,28.15
450947,0.26,-0.19,0.86,15.75,-24.46,-67.11,28.15
450957,0.26,-0.19,0.85,16.79,-16.94,-75.94,28.11
450967,0.22,-0.17,0.84,15.08,-4.60,-81.69,28.11
450977,0.15,-0.16,0.90,11.35,-0.73,-85.15,28.11
450987,0.08,-0.15,0.97,11.88,-3.26,-86.73,28.15
450997,0.05,-0.15,0.96,13.53,-7.53,-85.53,28.06
451007,0.08,-0.17,0.94,18.06,-9.89,-84.33,28.11
451017,0.13,-0.18,0.91,22.70,-6.40,-85.02,28.01
451027,0.17,-0.19,0.87,25.39,-2.97,-88.85,28.25
451037,0.16,-0.20,0.84,24.33,-0.89,-92.75,28.15
451047,0.17,-0.20,0.81,22.95,2.40,-95.53,28.06
451057,0.17,-0.21,0.83,21.71,8.46,-98.34,28.11
451067,0.18,-0.23,0.85,20.53,12.84,-101.51,28.11
451077,0.17,-0.25,0.88,18.55,12.33,-106.31,28.15
451087,0.16,-0.26,0.88,17.82,7.95,-110.30,28.15
451097,0.12,-0.27,0.87,17.71,-1.85,-116.37,28.11
451107,0.14,-0.26,0.84,20.92,-2.67,-119.85,28.20
451117,0.12,-0.26,0.84,20.47,-3.69,-123.62,28.06
451127,0.11,-0.26,0.80,20.73,0.39,-124.03,28.06
451137,0.09,-0.26,0.81,18.11,5.13,-125.00,28.06
451147,0.08,-0.27,0.83,14.95,5.95,-126.22,28.11
451157,0.07,-0.28,0.85,13.20,2.98,-127.64,28.01
451167,0.06,-0.31,0.84,13.93,-2.27,-129.04,28.06
451177,0.05,-0.32,0.84,15.27,-4.99,-130.18,28.06
451187,0.07,-0.32,0.82,15.99,-3.74,-132.25,28.11
451197,0.07,-0.32,0.83,14.86,1.98,-135.53,28.11
451207,0.03,-0.32,0.87,12.76,5.54,-139.12,28.11
451217,-0.02,-0.31,0.91,11.89,4.58,-141.19,28.15
451227,-0.06,-0.30,0.94,11.89,-3.55,-142.43,28.06
451237,-0.08,-0.30,0.95,14.36,-12.63,-143.74,28.06
451247,-0.08,-0.33,0.92,18.04,-15.33,-142.97,28.11
451257,-0.07,-0.35,0.90,21.69,-12.98,-142.76,28.06
451267,-0.04,-0.34,0.86,21.76,-4.69,-143.56,28.06
451277,-0.05,-0.34,0.86,20.96,4.86,-144.68,28.06
451287,-0.06,-0.32,0.86,19.21,12.15,-144.98,28.11
451297,-0.07,-0.32,0.89,17.60,16.28,-144.92,28.01
451307,-0.08,-0.36,0.92,17.52,15.06,-145.89,28.06
451317,-0.12,-0.36,0.94,17.62,5.52,-148.11,28.15
451327,-0.12,-0.38,0.92,18.14,-5.40,-150.95,28.06
451337,-0.14,-0.38,0.89,20.21,-11.07,-152.92,28.01
451347,-0.14,-0.34,0.86,20.16,-12.07,-153.11,28.11
451357,-0.16,-0.31,0.84,18.11,-8.41,-153.65,28.15
451367,-0.18,-0.29,0.83,15.80,-3.73,-152.57,28.15
451377,-0.21,-0.29,0.84,13.13,0.85,-149.38,28.11
451387,-0.23,-0.31,0.86,12.74,3.16,-147.33,28.01
451397,-0.24,-0.32,0.88,12.27,2.46,-145.39,28.01
451407,-0.27,-0.31,0.90,9.18,-4.41,-144.11,28.15
451417,-0.29,-0.29,0.90,5.69,-17.34,-142.34,28.06
451427,-0.29,-0.27,0.89,2.16,-27.38,-139.70,28.06
451437,-0.26,-0.28,0.87,1.44,-30.01,-137.35,28.11
451447,-0.24,-0.29,0.86,0.90,-24.05,-136.37,28.15
451457,-0.25,-0.29,0.86,0.18,-16.35,-136.79,28.06
451467,-0.30,-0.26,0.85,-1.92,-10.41,-137.56,28.15
451477,-0.37,-0.21,0.84,-4.95,-8.21,-135.26,28.11
451487,-0.42,-0.18,0.85,-5.16,-8.08,-129.53,28.11
451497,-0.44,-0.18,0.88,-6.60,-10.32,-121.80,28.15
451507,-0.44,-0.18,0.92,-7.40,-14.44,-114.00,28.06
451517,-0.42,-0.17,0.95,-8.73,-21.38,-108.21,28.11
451527,-0.38,-0.18,0.93,-9.95,-28.27,-104.15,28.11
451537,-0.33,-0.19,0.90,-9.12,-33.17,-102.51,28.20
451547,-0.27,-0.20,0.86,-6.66,-29.64,-100.62,28.15
451557,-0.22,-0.22,0.85,-5.50,-17.50,-99.72,28.06
451567,-0.19,-0.22,0.89,-4.02,-3.26,-100.56,28.01
451577,-0.22,-0.22,0.92,-3.82,5.37,-99.92,28.11
451587,-0.22,-0.20,0.92,-3.78,6.42,-99.29,28.06
451597,-0.22,-0.20,0.91,-2.95,5.06,-98.40,28.06
451607,-0.22,-0.20,0.93,-0.33,2.31,-96.66,28.15
451617,-0.19,-0.22,0.91,3.24,1.44,-93.49,28.06
451627,-0.14,-0.23,0.89,3.47,5.08,-91.43,28.11
451637,-0.12,-0.23,0.91,2.45,6.15,-92.47,28.15
451647,-0.15,-0.23,0.93,0.98,1.49,-93.89,28.06
451657,-0.17,-0.22,0.90,0.49,-6.28,-93.23,28.06
451667,-0.15,-0.20,0.86,0.70,-7.82,-90.92,28.20
451677,-0.10,-0.20,0.83,2.15,0.35,-88.95,28.11
451687,-0.07,-0.21,0.82,-0.57,12.82,-88.04,28.15
451697,-0.07,-0.22,0.89,-4.91,20.56,-90.03,28.15
451707,-0.12,-0.22,0.98,-8.95,14.02,-93.34,28.01
451717,-0.18,-0.20,1.04,-9.77,-2.81,-94.37,28.11
451727,-0.20,-0.21,1.04,-3.66,-21.83,-94.46,28.11
451737,-0.18,-0.20,0.96,7.96,-20.17,-91.50,28.15
451747,-0.17,-0.15,0.87,9.24,-8.80,-87.81,28.06
451757,-0.20,-0.14,0.88,4.21,-5.62,-86.93,28.11
451767,-0.23,-0.12,0.91,-2.08,-4.47,-83.34,28.20
451777,-0.26,-0.14,0.96,-9.62,-13.54,-80.76,28.11
451787,-0.21,-0.17,0.95,-8.98,-17.52,-78.22,28.06
451797,-0.19,-0.17,0.99,-7.83,-11.04,-76.85,28.06
451807,-0.21,-0.17,1.05,-6.44,-11.87,-76.88,28.06
451817,-0.23,-0.17,1.06,-3.66,-13.95,-75.14,28.11
451827,-0.24,-0.17,1.06,-0.59,-19.18,-72.68,28.15
451837,-0.22,-0.16,1.03,1.37,-21.66,-70.69,28.15
451847,-0.22,-0.16,1.04,3.56,-22.03,-68.45,28.15
451857,-0.23,-0.15,1.02,4.92,-19.99,-65.66,28.11
451867,-0.21,-0.15,0.97,6.37,-15.34,-62.69,28.11
451877,-0.18,-0.15,0.93,7.20,-7.95,-61.01,28.06
451887,-0.19,-0.12,0.93,7.56,-1.33,-58.58,28.06
451897,-0.19,-0.12,0.92,6.71,3.20,-56.34,28.15
451907,-0.20,-0.12,0.93,3.03,1.73,-54.18,28.11
451917,-0.19,-0.13,0.97,0.69,1.19,-53.06,28.01
451927,-0.21,-0.12,1.02,1.38,-5.64,-53.14,28.06
451937,-0.23,-0.12,1.02,3.70,-13.24,-50.26,28.06
451947,-0.22,-0.11,0.97,8.27,-16.37,-45.45,28.20
451957,-0.17,-0.09,0.90,11.66,-12.17,-41.63,28.20
451967,-0.13,-0.10,0.89,12.81,-1.69,-39.43,28.11
451977,-0.12,-0.10,0.89,12.29,8.18,-37.77,28.15
451987,-0.12,-0.11,0.90,11.37,11.53,-34.84,28.06
451997,-0.10,-0.11,0.92,9.21,10.21,-34.00,28.15
452007,-0.10,-0.10,0.96,8.53,2.37,-34.51,28.20
452017,-0.11,-0.08,0.96,10.91,-11.89,-34.96,28.15
452027,-0.08,-0.08,0.88,13.37,-20.03,-33.82,28.06
452037,-0.03,-0.08,0.80,14.27,-12.63,-31.55,28.06
452047,0.00,-0.07,0.80,12.31,2.10,-30.89,28.20
452057,-0.00,-0.05,0.85,8.24,11.69,-31.66,28.11
452067,-0.03,-0.06,0.88,2.79,11.10,-32.56,28.06
452077,-0.07,-0.05,0.91,2.91,4.34,-32.04,28.15
452087,-0.06,-0.06,0.89,7.00,2.79,-30.58,28.01
452097,-0.05,-0.06,0.88,9.59,5.00,-29.81,28.11
452107,-0.07,-0.06,0.89,10.87,5.44,-28.92,28.15
452117,-0.07,-0.03,0.89,10.30,0.88,-27.71,28.15
452127,-0.07,-0.03,0.86,9.05,-3.18,-26.47,28.06
452137,-0.06,-0.04,0.82,9.33,-1.09,-23.79,28.11
452147,-0.04,-0.02,0.79,9.06,5.31,-21.07,28.11
452157,-0.02,-0.03,0.81,5.01,9.21,-19.95,28.06
452167,-0.01,-0.03,0.84,-0.22,5.73,-21.47,28.06
452177,-0.02,-0.03,0.83,-2.33,1.83,-23.02,28.15
452187,-0.02,-0.04,0.83,-2.15,1.08,-23.89,28.11
452197,-0.05,-0.04,0.86,-2.00,2.37,-24.66,28.11
452207,-0.09,-0.02,0.90,-1.67,0.71,-24.11,28.06
452217,-0.12,-0.02,0.91,-1.37,-1.73,-20.56,28.06
452227,-0.10,-0.03,0.90,-0.11,-2.92,-16.91,28.01
452237,-0.07,-0.02,0.90,1.27,-1.10,-14.57,28.11
452247,-0.04,-0.03,0.90,1.72,1.17,-15.02,28.06
452257,-0.03,-0.04,0.89,2.22,2.66,-16.57,28.06
452267,-0.03,-0.05,0.87,2.56,4.16,-18.82,27.97
452277,-0.05,-0.04,0.88,3.82,6.95,-20.50,28.11
452287,-0.10,-0.04,0.89,3.39,8.29,-20.65,28.11
452297,-0.14,-0.02,0.90,1.87,6.15,-19.17,28.15
452307,-0.18,-0.01,0.90,0.89,2.99,-16.11,28.06
452317,-0.18,-0.01,0.88,0.41,2.32,-11.40,28.25
452327,-0.16,-0.03,0.89,0.49,4.00,-7.76,28.01
452337,-0.14,-0.03,0.91,0.40,6.47,-4.79,28.20
452347,-0.12,-0.04,0.92,-0.58,6.87,-3.50,28.15
452357,-0.12,-0.05,0.93,-0.49,5.15,-2.86,28.06
452367,-0.11,-0.05,0.93,-0.02,4.09,-1.85,28.06
452377,-0.09,-0.05,0.93,0.78,3.71,-0.52,28.01
452387,-0.08,-0.04,0.94,2.31,2.82,-0.60,28.15
452397,-0.08,-0.03,0.93,2.54,0.23,-1.53,28.15
452407,-0.08,-0.03,0.90,2.97,-0.21,-1.89,28.15
452417,-0.07,-0.01,0.90,4.49,4.11,-1.09,28.11
452427,-0.10,-0.01,0.89,5.89,8.59,0.71,28.11
452437,-0.13,0.00,0.89,4.51,7.63,3.33,28.06
452447,-0.13,0.00,0.87,1.60,3.10,6.25,28.06
452457,-0.10,-0.01,0.88,0.32,2.15,8.60,28.11
452467,-0.07,-0.03,0.89,0.60,3.90,10.15,28.11
452477,-0.04,-0.04,0.90,0.86,4.03,10.19,28.11
452487,-0.03,-0.05,0.90,-0.03,1.89,8.98,28.15
452497,-0.02,-0.05,0.90,0.67,-1.10,7.94,28.06
452507,-0.00,-0.05,0.89,2.13,-0.22,7.43,28.11
452517,-0.00,-0.05,0.88,2.85,2.30,7.11,28.20
452527,-0.02,-0.04,0.89,2.28,3.24,6.76,28.15
452537,-0.02,-0.03,0.89,1.09,3.64,7.87,28.06
452547,-0.01,-0.04,0.89,0.35,3.69,8.68,28.06
452557,-0.00,-0.04,0.90,0.08,4.42,8.81,28.01
452567,0.00,-0.04,0.91,-0.12,4.66,8.33,28.11
452577,-0.01,-0.04,0.92,0.47,2.75,7.60,28.06
452587,-0.01,-0.04,0.91,1.09,2.03,7.63,28.06
452597,-0.02,-0.05,0.89,1.83,2.46,8.79,28.11
452607,-0.01,-0.05,0.89,2.56,4.96,10.19,28.11
452617,0.01,-0.05,0.89,1.88,6.25,11.24,28.11
452627,0.04,-0.06,0.88,0.33,7.21,10.86,28.06
452637,0.06,-0.06,0.89,-1.06,6.85,9.52,28.06
452647,0.07,-0.06,0.89,-1.49,6.99,7.13,28.11
452657,0.06,-0.07,0.91,-0.95,6.24,4.31,28.11
452667,0.04,-0.07,0.91,-0.04,5.20,2.67,28.06
452677,0.01,-0.06,0.91,0.00,4.41,2.50,28.06
452687,-0.00,-0.06,0.91,0.52,3.94,3.47,28.01
452697,-0.00,-0.05,0.92,0.76,4.26,4.64,28.20
452707,0.02,-0.06,0.91,0.40,3.79,5.27,28.11
452717,0.03,-0.07,0.92,-0.13,2.63,4.40,28.06
452727,0.04,-0.07,0.92,-0.44,0.37,2.56,28.06
452737,0.04,-0.07,0.91,0.38,-1.89,0.67,28.15
452747,0.03,-0.08,0.92,1.32,-1.58,-0.18,28.01
452757,0.02,-0.08,0.92,1.26,-1.49,-0.17,28.06
452767,0.01,-0.07,0.93,1.24,-1.85,-0.43,28.15
452777,0.01,-0.06,0.92,0.98,-1.65,-1.36,28.06
452787,0.00,-0.07,0.93,1.28,-1.53,-1.93,28.11
452797,-0.01,-0.05,0.93,2.43,-1.34,-1.67,28.11
452807,-0.02,-0.06,0.93,2.79,-2.00,-1.54,28.15
452817,-0.02,-0.05,0.93,3.05,-3.45,-1.41,28.06
452827,-0.02,-0.05,0.92,2.93,-4.41,-1.53,28.11
452837,-0.01,-0.05,0.91,2.82,-2.85,-1.67,28.11
452847,-0.01,-0.06,0.91,1.44,-1.47,-2.17,28.11
452857,-0.03,-0.04,0.93,0.82,-1.52,-2.27,28.06
452867,-0.03,-0.04,0.94,2.02,-2.21,-2.32,28.06
452877,-0.03,-0.04,0.94,2.92,-2.21,-2.28,28.01
452887,-0.04,-0.03,0.95,5.40,-3.28,-1.73,28.11
452897,-0.05,-0.03,0.93,7.38,-4.75,-0.88,28.06
452907,-0.04,-0.03,0.88,6.68,-5.47,0.47,28.06
452917,-0.02,-0.04,0.85,5.77,-3.78,1.36,28.06
452927,0.01,-0.05,0.86,4.38,-0.23,2.11,28.06
452937,0.01,-0.05,0.88,2.74,0.69,0.98,28.11
452947,0.01,-0.06,0.88,1.28,-2.37,-0.53,28.06
452957,0.01,-0.06,0.88,1.54,-5.39,-1.15,28.15
452967,0.02,-0.07,0.86,2.28,-5.44,-2.44,28.11
452977,0.01,-0.06,0.86,3.43,-3.66,-2.85,28.11
452987,-0.01,-0.06,0.85,2.79,1.04,-1.78,28.20
452997,-0.01,-0.06,0.87,1.40,3.85,-0.92,28.06
453007,-0.03,-0.05,0.90,-0.60,1.96,-0.63,28.06
453017,-0.04,-0.06,0.90,-1.95,-2.82,-0.62,28.01
453027,-0.04,-0.07,0.91,-0.87,-5.08,-0.59,28.11
453037,-0.02,-0.07,0.90,1.10,-3.57,-0.50,28.11
453047,-0.03,-0.06,0.91,2.03,-1.12,-0.52,28.15
453057,-0.03,-0.05,0.91,0.93,-0.85,-1.11,28.06
453067,-0.04,-0.05,0.90,1.04,0.47,-0.98,28.20
453077,-0.05,-0.05,0.90,1.51,0.89,-0.23,28.11
453087,-0.06,-0.04,0.89,1.74,-0.27,0.63,27.97
453097,-0.05,-0.04,0.89,0.56,-2.26,1.21,28.15
453107,-0.05,-0.05,0.89,-0.82,-3.47,2.16,28.15
453117,-0.03,-0.05,0.88,-1.17,-0.74,3.05,28.06
453127,-0.02,-0.06,0.91,-0.55,3.63,3.43,28.01
453137,-0.02,-0.08,0.93,-0.73,4.89,3.27,28.06
453147,-0.04,-0.08,0.95,-0.81,2.06,2.74,28.06
453157,-0.04,-0.07,0.95,0.09,-2.44,2.95,28.01
453167,-0.03,-0.08,0.93,1.56,-4.69,3.31,28.11
453177,-0.02,-0.08,0.92,2.67,-2.87,4.08,28.11
453187,-0.01,-0.07,0.93,2.67,-1.23,3.82,28.06
453197,-0.01,-0.08,0.93,1.18,-0.51,3.89,28.06
453207,-0.02,-0.09,0.92,0.57,-2.51,3.97,28.11
453217,-0.02,-0.08,0.92,1.37,-2.60,4.40,28.01
453227,0.01,-0.08,0.91,1.90,-0.31,4.31,28.11
453237,0.03,-0.08,0.90,0.88,1.11,3.40,28.15
453247,0.02,-0.07,0.93,-0.28,-0.26,0.92,28.06
453257,0.00,-0.07,0.94,-0.05,-2.68,-1.25,28.01
453267,-0.00,-0.07,0.93,2.09,-4.17,-2.21,28.11
453277,-0.03,-0.04,0.93,3.79,-2.66,-2.11,28.06
453287,-0.05,-0.04,0.93,5.36,-1.28,-1.03,28.15
453297,-0.05,-0.03,0.91,5.83,0.24,0.79,28.06
453307,-0.04,-0.03,0.90,5.71,1.89,2.25,28.06
453317,-0.04,-0.04,0.88,5.94,2.53,2.89,28.01
453327,-0.02,-0.04,0.87,5.71,1.85,3.95,28.06
453337,-0.01,-0.05,0.87,4.29,0.27,4.11,28.15
453347,0.00,-0.06,0.88,2.84,-1.79,3.54,28.06
453357,0.01,-0.08,0.89,1.96,-2.93,2.89,28.11
453367,0.01,-0.08,0.90,1.69,-2.40,2.68,28.11
453377,0.02,-0.08,0.90,1.73,-0.56,2.05,28.06
453387,0.02,-0.07,0.91,2.43,0.44,1.03,28.06
453397,-0.01,-0.07,0.91,3.07,-0.21,1.27,28.11
453407,-0.02,-0.06,0.91,3.23,-2.90,2.21,28.11
453417,-0.00,-0.07,0.91,3.58,-3.52,2.47,28.01
453427,0.01,-0.08,0.92,3.61,-3.58,2.00,28.06
453437,0.01,-0.08,0.92,3.34,-3.95,0.74,27.97
453447,0.00,-0.07,0.91,3.41,-4.40,0.08,28.11
453457,-0.01,-0.07,0.91,4.02,-5.44,-0.18,28.11
453467,-0.01,-0.06,0.90,3.96,-5.18,-0.12,28.06
453477,-0.01,-0.05,0.89,3.42,-4.38,0.35,27.97
453487,-0.01,-0.06,0.90,2.69,-3.17,0.73,28.06
453497,-0.01,-0.06,0.89,1.94,-2.06,1.22,28.15
453507,-0.00,-0.06,0.90,1.18,-0.21,1.63,28.01
453517,-0.01,-0.06,0.92,1.08,0.36,1.90,28.06
453527,0.00,-0.06,0.93,1.38,-0.21,1.83,28.06
453537,-0.01,-0.06,0.93,2.28,-2.67,1.47,28.01
453547,-0.01,-0.06,0.92,3.02,-3.89,1.98,28.11
453557,0.01,-0.08,0.91,4.50,-4.98,1.28,28.01
453567,0.00,-0.06,0.89,5.60,-4.18,1.78,28.15
453577,0.01,-0.05,0.87,4.37,-3.06,2.44,28.06
453587,0.02,-0.06,0.87,3.58,-1.96,2.37,28.01
453597,0.03,-0.05,0.88,2.13,-1.54,1.56,28.01
453607,0.02,-0.06,0.89,1.44,-2.90,0.75,28.11
453617,0.03,-0.06,0.89,1.76,-2.85,0.17,28.15
453627,0.04,-0.06,0.89,2.06,-1.88,-0.41,28.06
453637,0.02,-0.05,0.90,1.48,-2.41,-1.22,28.11
453647,0.02,-0.05,0.92,2.08,-2.56,-1.01,28.11
453657,0.02,-0.05,0.92,2.56,-2.51,-1.04,28.06
453667,0.03,-0.06,0.91,3.22,-2.33,-1.05,28.15
453677,0.02,-0.05,0.90,3.82,-1.33,-1.36,28.06
453687,0.01,-0.05,0.88,4.41,-1.47,-1.48,28.11
453697,0.01,-0.04,0.87,4.98,0.24,-1.40,28.11
453707,0.00,-0.04,0.85,3.85,1.93,-0.27,28.15
453717,0.01,-0.06,0.86,2.02,2.81,0.71,28.06
453727,0.00,-0.05,0.87,0.11,2.99,1.22,28.11
453737,0.02,-0.06,0.88,-1.66,2.73,1.29,28.01
453747,0.03,-0.06,0.90,-2.16,1.83,0.54,28.11
453757,0.03,-0.07,0.91,-1.47,1.83,-0.31,28.15
453767,0.02,-0.07,0.92,-0.57,0.63,-0.89,28.06
453777,0.00,-0.07,0.93,0.33,-1.32,-1.13,28.11
453787,0.01,-0.06,0.91,0.18,-2.37,-1.26,28.11
453797,0.02,-0.07,0.91,-0.11,-3.19,-1.51,28.01
453807,0.01,-0.08,0.93,0.40,-2.51,-2.11,28.06
453817,0.02,-0.07,0.92,0.80,-3.34,-3.03,28.06
453827,0.01,-0.07,0.90,1.15,-3.60,-4.11,28.11
453837,0.00,-0.07,0.90,2.31,-1.73,-4.24,28.11
453847,-0.01,-0.07,0.89,3.06,0.70,-3.73,28.15
453857,-0.02,-0.06,0.90,2.50,2.69,-3.41,28.06
453867,-0.02,-0.06,0.90,0.79,3.28,-3.18,28.06
453877,-0.02,-0.06,0.92,0.00,2.24,-2.94,28.06
453887,-0.02,-0.07,0.92,0.53,1.37,-2.31,28.11
453897,-0.02,-0.07,0.93,1.41,0.29,-2.34,28.06
453907,-0.00,-0.08,0.92,2.34,1.48,-2.67,28.06
453917,0.01,-0.07,0.93,2.89,2.14,-3.27,28.11
453927,-0.01,-0.07,0.93,3.07,2.52,-3.02,28.11
453937,-0.01,-0.06,0.92,3.11,2.08,-3.40,28.01
453947,-0.01,-0.06,0.91,2.58,1.91,-3.21,28.15
453957,-0.02,-0.06,0.92,3.19,2.13,-2.97,28.15
453967,-0.02,-0.06,0.91,3.39,2.15,-2.65,28.11
453977,-0.03,-0.06,0.91,3.21,1.93,-2.37,28.01
453987,-0.02,-0.06,0.92,3.39,2.03,-2.08,28.15
453997,-0.02,-0.07,0.92,4.06,2.70,-1.76,28.06
454007,-0.03,-0.07,0.92,4.44,2.46,-1.34,28.15
454017,-0.02,-0.06,0.93,5.20,0.31,-1.10,28.01
454027,-0.00,-0.06,0.92,6.00,-1.81,-1.59,28.11
454037,0.00,-0.06,0.90,6.57,-2.68,-1.13,28.15
454047,0.02,-0.07,0.89,6.66,-2.15,-1.10,28.06
454057,0.02,-0.07,0.88,5.11,-1.18,-1.31,28.06
