Millis,Acce_X,Acce_Y,Acce_Z,Gyro_X,Gyro_Y,Gyro_Z,Temp
54617,-0.05,-0.52,0.96,-12.73,13.13,-6.95,31.68
54627,-0.05,-0.51,0.97,-10.76,9.31,-6.55,31.68
54637,-0.04,-0.51,0.95,-8.75,6.84,-5.80,31.68
54647,-0.04,-0.49,0.94,-8.99,4.58,-5.65,31.78
54657,-0.03,-0.49,0.94,-9.97,2.09,-6.37,31.64
54667,-0.02,-0.48,0.92,-11.47,0.15,-7.31,31.73
54677,0.02,-0.50,0.87,-12.64,2.11,-8.24,31.64
54687,0.04,-0.50,0.88,-14.90,5.53,-10.43,31.64
54697,0.03,-0.50,0.86,-17.19,7.57,-12.14,31.64
54707,0.03,-0.51,0.86,-19.56,9.04,-13.11,31.64
54717,0.01,-0.51,0.87,-20.52,9.40,-11.60,31.73
54727,-0.00,-0.52,0.91,-21.54,10.18,-9.89,31.59
54737,-0.03,-0.54,0.96,-20.08,11.44,-7.62,31.64
54747,-0.05,-0.55,0.98,-17.10,11.18,-4.50,31.64
54757,-0.07,-0.57,0.99,-12.21,7.21,-1.65,31.64
54767,-0.04,-0.58,0.96,-7.08,4.81,-0.53,31.68
54777,0.01,-0.60,0.95,-4.84,4.20,-3.74,31.59
54787,0.04,-0.59,0.94,-5.71,1.27,-9.42,31.68
54797,0.03,-0.59,0.95,-8.35,-1.76,-15.94,31.68
54807,-0.01,-0.57,0.95,-9.92,-4.34,-19.62,31.68
54817,-0.04,-0.57,0.95,-9.66,-5.18,-19.54,31.68
54827,-0.08,-0.58,0.98,-7.83,-2.72,-16.99,31.68
54837,-0.13,-0.58,1.01,-3.59,0.17,-13.51,31.68
54847,-0.21,-0.59,1.03,0.15,1.44,-8.78,31.68
54857,-0.28,-0.58,1.07,3.24,0.70,-3.05,31.59
54867,-0.32,-0.57,1.08,5.91,-0.66,2.79,31.68
54877,-0.35,-0.56,1.10,6.29,-3.39,6.66,31.73
54887,-0.40,-0.57,1.11,5.68,-4.96,10.35,31.73
54897,-0.44,-0.58,1.12,6.06,-7.16,15.08,31.64
54907,-0.46,-0.60,1.14,8.34,-8.56,20.00,31.64
54917,-0.48,-0.61,1.11,11.28,-8.73,25.04,31.64
54927,-0.49,-0.62,1.10,12.64,-9.91,30.75,31.64
54937,-0.51,-0.62,1.10,12.61,-13.30,35.53,31.73
54947,-0.51,-0.61,1.09,10.87,-18.09,40.11,31.73
54957,-0.50,-0.60,1.06,8.63,-24.75,44.44,31.64
54967,-0.47,-0.61,1.04,6.92,-33.44,48.41,31.73
54977,-0.43,-0.61,1.02,5.37,-40.76,52.24,31.68
54987,-0.36,-0.65,1.03,4.11,-46.06,54.11,31.59
54997,-0.31,-0.68,1.05,4.52,-48.58,54.21,31.68
55007,-0.28,-0.72,1.07,6.73,-49.88,53.89,31.59
55017,-0.28,-0.73,1.10,10.24,-52.24,53.71,31.59
55027,-0.27,-0.73,1.11,14.31,-56.21,53.53,31.68
55037,-0.29,-0.72,1.09,17.91,-62.31,53.44,31.68
55047,-0.27,-0.70,1.05,22.03,-67.07,54.85,31.68
55057,-0.24,-0.67,1.02,24.67,-70.09,57.21,31.59
55067,-0.20,-0.65,0.98,25.37,-70.64,59.62,31.78
55077,-0.18,-0.65,0.95,25.60,-67.42,62.00,31.68
55087,-0.19,-0.65,0.93,25.88,-63.83,64.20,31.64
55097,-0.19,-0.64,0.94,27.33,-61.95,65.91,31.73
55107,-0.19,-0.62,0.92,29.28,-59.73,67.28,31.73
55117,-0.19,-0.61,0.91,29.76,-57.04,68.37,31.64
55127,-0.22,-0.59,0.90,29.16,-54.50,71.44,31.64
55137,-0.24,-0.58,0.92,28.43,-51.57,76.15,31.64
55147,-0.27,-0.59,0.93,29.05,-48.76,82.63,31.64
55157,-0.26,-0.59,0.91,30.47,-47.68,87.69,31.64
55167,-0.27,-0.59,0.89,29.24,-48.00,93.53,31.73
55177,-0.25,-0.61,0.87,27.47,-50.90,98.20,31.64
55187,-0.24,-0.61,0.86,24.87,-53.48,101.73,31.68
55197,-0.22,-0.62,0.85,21.98,-56.98,105.05,31.68
55207,-0.19,-0.63,0.85,20.75,-62.08,107.54,31.68
55217,-0.16,-0.64,0.82,20.98,-69.01,108.34,31.68
55227,-0.11,-0.65,0.81,20.75,-76.67,106.41,31.68
55237,-0.06,-0.64,0.80,18.52,-85.65,103.56,31.68
55247,-0.03,-0.63,0.77,17.94,-91.76,101.04,31.68
55257,0.01,-0.61,0.76,15.42,-92.40,100.40,31.59
55267,0.05,-0.61,0.72,16.55,-90.21,101.53,31.68
55277,0.09,-0.62,0.72,16.12,-81.44,103.76,31.68
55287,0.12,-0.63,0.73,17.56,-72.93,105.65,31.59
55297,0.14,-0.65,0.73,19.11,-63.50,106.11,31.64
55307,0.14,-0.66,0.74,20.03,-57.25,106.11,31.64
55317,0.14,-0.65,0.76,21.91,-55.76,102.99,31.64
55327,0.11,-0.64,0.76,21.08,-60.81,97.37,31.64
55337,0.11,-0.60,0.75,20.00,-68.49,92.55,31.64
55347,0.13,-0.58,0.73,18.89,-74.61,89.47,31.64
55357,0.17,-0.51,0.70,16.64,-72.03,90.44,31.64
55367,0.22,-0.51,0.69,13.39,-58.52,95.56,31.64
55377,0.25,-0.55,0.72,8.05,-39.22,100.58,31.54
55387,0.21,-0.64,0.88,4.15,-26.99,101.33,31.64
55397,0.15,-0.72,0.98,5.94,-24.21,96.09,31.59
55407,0.05,-0.76,1.08,9.85,-33.68,83.98,31.59
55417,-0.03,-0.70,1.09,21.86,-55.01,75.40,31.59
55427,-0.03,-0.58,0.89,33.71,-67.59,76.70,31.49
55437,0.01,-0.54,0.80,33.77,-71.04,85.28,31.78
55447,0.07,-0.52,0.72,28.14,-61.68,94.09,31.59
55457,0.11,-0.53,0.70,22.02,-42.64,104.44,31.68
55467,0.11,-0.56,0.75,18.81,-27.98,110.24,31.68
55477,0.07,-0.55,0.82,19.62,-27.15,111.45,31.59
55487,0.04,-0.49,0.77,17.11,-34.29,112.66,31.68
55497,0.08,-0.49,0.72,21.68,-43.22,118.14,31.59
55507,0.12,-0.48,0.71,20.05,-43.74,122.46,31.68
55517,0.13,-0.46,0.71,12.49,-38.24,125.24,31.64
55527,0.16,-0.51,0.69,4.43,-22.56,131.01,31.64
55537,0.15,-0.57,0.77,1.04,-12.31,135.45,31.73
55547,0.13,-0.65,0.86,-0.11,-15.88,131.51,31.64
55557,0.07,-0.72,0.97,-2.64,-31.50,118.31,31.64
55567,0.07,-0.72,0.99,1.60,-62.24,104.46,31.54
55577,0.05,-0.66,0.93,13.57,-84.06,95.86,31.73
55587,0.15,-0.63,0.79,17.01,-100.12,97.73,31.64
55597,0.28,-0.59,0.67,20.20,-99.05,104.72,31.64
55607,0.37,-0.56,0.59,14.73,-77.13,109.73,31.49
55617,0.39,-0.56,0.63,7.59,-58.46,110.69,31.64
55627,0.37,-0.58,0.67,3.54,-52.60,105.83,31.59
55637,0.34,-0.57,0.68,-2.49,-56.67,94.47,31.68
55647,0.32,-0.57,0.69,-2.47,-72.31,83.47,31.59
55657,0.32,-0.51,0.68,-6.09,-83.89,76.32,31.59
55667,0.34,-0.48,0.65,-8.38,-85.77,75.89,31.59
55677,0.34,-0.49,0.66,-14.17,-79.57,77.45,31.59
55687,0.32,-0.55,0.71,-22.43,-71.54,76.17,31.59
55697,0.26,-0.57,0.77,-30.70,-72.23,72.99,31.59
55707,0.22,-0.63,0.80,-34.93,-83.85,64.92,31.59
55717,0.19,-0.68,0.84,-37.74,-100.79,50.11,31.59
55727,0.16,-0.63,0.82,-36.27,-118.08,39.01,31.68
55737,0.19,-0.56,0.72,-29.37,-123.18,40.34,31.59
55747,0.26,-0.45,0.59,-21.88,-102.38,61.66,31.45
55757,0.34,-0.41,0.56,-17.39,-59.53,95.91,31.64
55767,0.39,-0.49,0.65,-20.95,-14.81,125.34,31.64
55777,0.46,-0.55,0.78,-25.31,15.94,141.16,31.73
55787,0.43,-0.70,0.95,-25.94,14.95,142.98,31.73
55797,0.49,-0.85,1.13,-28.08,-1.94,125.50,31.54
55807,0.46,-1.01,1.32,-19.16,-38.24,88.72,31.64
55817,0.47,-1.01,1.28,-13.80,-91.39,48.23,31.59
55827,0.40,-0.89,1.18,-2.96,-138.96,19.04,31.64
55837,0.44,-0.72,1.03,7.60,-148.67,12.78,31.64
55847,0.47,-0.60,0.86,17.71,-120.67,28.24,31.59
55857,0.47,-0.51,0.75,29.19,-75.30,56.87,31.68
55867,0.50,-0.51,0.74,34.15,-20.52,87.24,31.59
55877,0.49,-0.57,0.81,34.49,11.83,107.18,31.68
55887,0.46,-0.63,0.88,28.24,16.63,110.11,31.59
55897,0.40,-0.69,0.99,23.66,1.39,100.90,31.49
55907,0.37,-0.77,1.06,26.69,-25.42,82.24,31.59
55917,0.35,-0.79,1.07,29.11,-66.03,61.66,31.59
55927,0.36,-0.74,0.99,39.88,-103.24,45.95,31.59
55937,0.35,-0.67,0.86,49.15,-118.64,43.19,31.59
55947,0.35,-0.61,0.77,57.77,-113.13,52.72,31.64
55957,0.38,-0.57,0.73,63.36,-96.00,64.76,31.64
55967,0.38,-0.53,0.69,65.07,-86.17,73.92,31.64
55977,0.37,-0.49,0.67,63.44,-81.24,80.99,31.64
55987,0.39,-0.50,0.64,60.63,-85.54,88.05,31.64
55997,0.37,-0.49,0.72,60.85,-91.71,94.14,31.64
56007,0.42,-0.51,0.75,66.06,-98.02,100.64,31.54
56017,0.42,-0.57,0.67,70.35,-124.02,101.10,31.64
56027,0.48,-0.60,0.69,70.56,-131.07,105.79,31.59
56037,0.48,-0.64,0.74,71.92,-143.24,109.34,31.54
56047,0.50,-0.59,0.82,80.50,-152.64,115.07,31.64
56057,0.66,-0.64,0.62,79.60,-150.43,116.78,31.59
56067,0.78,-0.60,0.60,77.19,-133.95,120.63,31.49
56077,0.83,-0.61,0.62,73.24,-115.83,120.17,31.59
56087,0.86,-0.63,0.67,70.56,-92.06,113.91,31.59
56097,0.80,-0.67,0.73,73.10,-84.64,104.40,31.68
56107,0.68,-0.76,0.82,82.47,-94.96,95.89,31.59
56117,0.61,-0.79,0.90,97.92,-102.17,90.92,31.59
56127,0.57,-0.71,0.85,109.76,-106.37,85.22,31.59
56137,0.62,-0.64,0.73,114.02,-110.29,76.52,31.49
56147,0.66,-0.37,0.55,97.10,-114.34,65.47,31.59
56157,0.71,-0.16,0.40,59.88,-118.85,52.43,31.59
56167,0.77,-0.05,0.32,22.84,-109.47,44.17,31.59
56177,0.78,-0.00,0.33,-6.99,-91.86,42.29,31.64
56187,0.74,-0.06,0.45,-24.79,-65.05,48.09,31.54
56197,0.65,-0.17,0.61,-33.91,-43.71,58.78,31.54
56207,0.51,-0.35,0.78,-34.60,-40.18,67.33,31.64
56217,0.43,-0.47,0.98,-25.59,-44.56,69.28,31.64
56227,0.41,-0.57,1.10,-12.95,-57.07,67.24,31.64
56237,0.45,-0.55,1.07,-1.82,-70.95,62.90,31.54
56247,0.50,-0.51,0.97,4.84,-74.41,61.04,31.54
56257,0.59,-0.43,0.88,9.65,-70.38,62.73,31.64
56267,0.66,-0.39,0.73,7.08,-63.02,64.89,31.64
56277,0.71,-0.37,0.69,-0.92,-51.10,64.79,31.59
56287,0.73,-0.41,0.70,-7.07,-40.05,60.66,31.68
56297,0.70,-0.45,0.73,-11.08,-28.87,53.94,31.59
56307,0.63,-0.49,0.75,-9.25,-23.65,48.52,31.59
56317,0.55,-0.52,0.79,-2.66,-24.64,46.41,31.59
56327,0.52,-0.48,0.78,1.39,-21.19,45.92,31.59
56337,0.50,-0.42,0.79,0.70,-23.76,47.40,31.68
56347,0.48,-0.42,0.79,0.06,-29.40,49.57,31.59
56357,0.51,-0.43,0.77,-1.48,-34.50,49.92,31.59
56367,0.54,-0.47,0.75,-3.18,-37.63,48.15,31.59
56377,0.58,-0.50,0.73,-2.90,-36.23,46.20,31.59
56387,0.60,-0.50,0.73,-0.66,-30.64,44.41,31.64
56397,0.60,-0.52,0.76,2.38,-25.24,41.25,31.64
56407,0.57,-0.52,0.79,7.92,-25.22,39.34,31.64
56417,0.54,-0.48,0.76,9.60,-28.79,39.01,31.73
56427,0.58,-0.46,0.69,7.28,-30.67,38.49,31.64
56437,0.56,-0.47,0.69,5.88,-33.07,38.90,31.64
56447,0.57,-0.52,0.64,2.44,-36.93,39.08,31.68
56457,0.56,-0.55,0.69,2.99,-37.30,38.50,31.64
56467,0.61,-0.56,0.62,2.05,-38.95,37.10,31.64
56477,0.63,-0.56,0.65,2.73,-35.66,33.44,31.64
56487,0.61,-0.63,0.53,3.02,-55.73,31.27,31.68
56497,0.64,-0.59,0.62,0.66,-34.81,30.32,31.59
56507,0.65,-0.59,0.60,-0.12,-30.05,29.15,31.68
56517,0.67,-0.62,0.58,0.26,-24.47,25.15,31.59
56527,0.64,-0.60,0.63,1.62,-25.68,21.83,31.68
56537,0.67,-0.59,0.63,2.56,-22.82,19.42,31.59
56547,0.67,-0.55,0.60,0.78,-22.05,19.91,31.68
56557,0.66,-0.54,0.61,-4.17,-26.40,21.47,31.68
56567,0.68,-0.52,0.60,-9.86,-26.35,22.70,31.68
56577,0.68,-0.57,0.61,-12.31,-27.21,23.19,31.73
56587,0.72,-0.62,0.62,-14.67,-29.88,21.07,31.64
56597,0.73,-0.66,0.66,-12.99,-33.18,16.89,31.64
56607,0.74,-0.65,0.64,-7.69,-31.76,13.44,31.54
56617,0.76,-0.61,0.61,-4.06,-24.47,12.70,31.64
56627,0.77,-0.59,0.61,0.02,-15.30,13.30,31.73
56637,0.76,-0.59,0.60,-0.08,-8.87,14.05,31.54
56647,0.76,-0.58,0.60,-2.76,-4.18,15.16,31.73
56657,0.77,-0.59,0.60,-5.24,0.61,15.36,31.68
56667,0.76,-0.59,0.62,-8.99,1.18,14.38,31.59
56677,0.77,-0.61,0.61,-11.24,3.34,12.15,31.59
56687,0.74,-0.62,0.61,-12.50,2.44,9.77,31.59
56697,0.72,-0.64,0.64,-11.18,-1.31,7.97,31.59
56707,0.71,-0.64,0.65,-10.92,-3.01,6.98,31.68
56717,0.72,-0.65,0.67,-8.76,-1.08,6.73,31.68
56727,0.72,-0.66,0.68,-7.24,0.35,6.63,31.68
56737,0.75,-0.63,0.67,-6.76,2.52,5.68,31.59
56747,0.76,-0.64,0.67,-5.73,3.69,3.39,31.59
56757,0.75,-0.63,0.67,-5.69,5.30,0.75,31.64
56767,0.73,-0.61,0.66,-5.97,6.67,-0.50,31.64
56777,0.71,-0.60,0.67,-6.35,7.13,-1.02,31.64
56787,0.69,-0.62,0.69,-7.24,5.07,-2.03,31.54
56797,0.68,-0.61,0.67,-7.60,1.44,-3.54,31.64
56807,0.68,-0.59,0.65,-8.26,-0.87,-5.02,31.54
56817,0.69,-0.59,0.65,-9.13,-0.93,-5.34,31.64
56827,0.70,-0.58,0.64,-10.53,-1.11,-4.81,31.68
56837,0.69,-0.59,0.64,-11.97,1.65,-4.82,31.64
56847,0.68,-0.60,0.66,-11.48,2.76,-4.73,31.64
56857,0.68,-0.61,0.66,-10.89,3.91,-4.56,31.68
56867,0.69,-0.62,0.67,-9.44,5.24,-5.89,31.59
56877,0.68,-0.61,0.67,-7.83,5.30,-7.48,31.59
56887,0.68,-0.61,0.67,-6.41,5.89,-8.32,31.59
56897,0.68,-0.60,0.68,-4.38,6.64,-8.90,31.68
56907,0.66,-0.61,0.68,-2.56,6.99,-10.98,31.68
56917,0.66,-0.58,0.67,-2.05,7.34,-12.67,31.59
56927,0.65,-0.58,0.64,-1.63,6.78,-14.75,31.68
56937,0.63,-0.56,0.63,-0.89,8.34,-15.11,31.68
56947,0.61,-0.55,0.63,-0.95,10.29,-13.65,31.64
56957,0.59,-0.54,0.63,-1.66,11.36,-11.50,31.73
56967,0.59,-0.54,0.64,-2.23,12.89,-10.11,31.64
56977,0.58,-0.53,0.65,-1.95,14.15,-9.21,31.64
56987,0.57,-0.54,0.64,-0.98,15.24,-7.91,31.64
56997,0.58,-0.54,0.64,0.60,18.55,-5.73,31.64
57007,0.60,-0.55,0.64,3.45,23.50,-4.06,31.64
57017,0.62,-0.56,0.65,8.03,30.43,-3.07,31.64
57027,0.65,-0.57,0.65,13.04,39.04,-3.01,31.64
57037,0.66,-0.60,0.66,18.32,47.63,-4.17,31.59
57047,0.66,-0.59,0.66,23.45,54.60,-6.34,31.68
57057,0.64,-0.57,0.67,25.34,58.32,-8.87,31.59
57067,0.58,-0.52,0.68,22.53,52.40,-11.63,31.68
57077,0.54,-0.50,0.68,17.13,43.15,-13.24,31.68
57087,0.51,-0.48,0.69,11.04,31.54,-13.47,31.68
57097,0.49,-0.45,0.68,3.71,21.65,-11.76,31.68
57107,0.48,-0.45,0.70,-3.83,11.53,-7.80,31.68
57117,0.51,-0.47,0.69,-8.84,3.94,-3.98,31.59
57127,0.57,-0.51,0.68,-12.27,2.29,-2.20,31.59
57137,0.63,-0.56,0.70,-11.66,5.77,-1.56,31.64
57147,0.66,-0.59,0.73,-9.39,10.93,-2.76,31.64
57157,0.68,-0.62,0.76,-6.40,15.13,-5.92,31.64
57167,0.66,-0.62,0.76,-3.36,17.44,-8.87,31.54
57177,0.63,-0.62,0.79,1.13,16.64,-11.74,31.64
57187,0.62,-0.59,0.78,3.54,16.70,-13.94,31.64
57197,0.61,-0.55,0.74,4.34,15.85,-14.56,31.64
57207,0.61,-0.53,0.72,4.99,19.42,-13.76,31.59
57217,0.60,-0.52,0.71,4.52,22.29,-11.57,31.64
57227,0.59,-0.53,0.71,3.05,25.13,-10.11,31.64
57237,0.58,-0.53,0.72,0.18,24.21,-10.00,31.68
57247,0.58,-0.55,0.73,-1.73,20.72,-10.08,31.59
57257,0.58,-0.54,0.73,-4.02,19.48,-10.20,31.68
57267,0.59,-0.54,0.74,-5.44,17.44,-9.34,31.59
57277,0.60,-0.57,0.76,-4.35,19.13,-8.40,31.59
57287,0.61,-0.57,0.75,-4.56,18.99,-8.26,31.68
57297,0.61,-0.57,0.77,-3.97,19.10,-9.88,31.59
57307,0.61,-0.57,0.75,-3.73,19.42,-11.37,31.59
57317,0.62,-0.54,0.74,-4.23,19.69,-12.78,31.68
57327,0.63,-0.52,0.71,-2.58,24.43,-12.92,31.59
57337,0.66,-0.50,0.62,1.94,41.88,-8.99,31.64
57347,0.64,-0.53,0.69,-0.41,44.29,-7.31,31.64
57357,0.65,-0.51,0.68,-3.53,50.23,-6.58,31.64
57367,0.61,-0.56,0.75,-5.16,50.44,-10.38,31.64
57377,0.60,-0.59,0.78,-5.83,45.28,-15.51,31.64
57387,0.56,-0.62,0.82,-3.07,39.18,-18.99,31.54
57397,0.54,-0.62,0.85,1.30,34.75,-21.71,31.73
57407,0.55,-0.59,0.83,4.37,32.03,-23.83,31.64
57417,0.55,-0.55,0.80,8.09,33.27,-25.25,31.68
57427,0.51,-0.51,0.79,7.39,29.76,-25.42,31.73
57437,0.52,-0.49,0.75,6.44,31.77,-24.78,31.64
57447,0.51,-0.48,0.77,4.27,31.07,-24.18,31.73
57457,0.51,-0.48,0.77,1.85,31.21,-22.35,31.59
57467,0.51,-0.50,0.77,-0.61,29.22,-20.47,31.68
57477,0.54,-0.51,0.78,-2.35,25.98,-20.47,31.68
57487,0.56,-0.53,0.78,-4.11,25.69,-20.58,31.59
57497,0.60,-0.53,0.78,-6.38,25.73,-21.66,31.68
57507,0.61,-0.55,0.80,-6.29,27.82,-24.09,31.68
57517,0.61,-0.57,0.81,-3.63,31.60,-27.59,31.78
57527,0.60,-0.58,0.82,0.47,34.67,-31.71,31.68
57537,0.57,-0.56,0.80,4.49,35.11,-36.08,31.68
57547,0.55,-0.53,0.79,6.00,34.76,-38.18,31.68
57557,0.53,-0.50,0.78,5.60,35.01,-38.53,31.68
57567,0.53,-0.48,0.77,4.11,37.24,-37.69,31.64
57577,0.52,-0.46,0.76,1.57,39.08,-36.78,31.54
57587,0.49,-0.46,0.75,-1.27,38.56,-35.88,31.64
57597,0.48,-0.45,0.78,-4.02,36.31,-35.77,31.64
57607,0.49,-0.47,0.79,-3.05,37.42,-35.40,31.64
57617,0.48,-0.45,0.81,-3.28,36.56,-34.58,31.73
57627,0.49,-0.45,0.80,-3.04,38.17,-33.25,31.64
57637,0.53,-0.45,0.81,-1.40,42.35,-31.34,31.73
57647,0.56,-0.45,0.82,1.56,49.13,-28.23,31.64
57657,0.64,-0.46,0.81,6.32,61.65,-23.83,31.64
57667,0.70,-0.50,0.83,9.60,77.10,-20.79,31.68
57677,0.71,-0.57,0.88,11.53,87.77,-21.15,31.59
57687,0.70,-0.63,0.95,11.47,90.40,-26.35,31.68
57697,0.65,-0.68,1.02,12.11,83.51,-38.50,31.68
57707,0.59,-0.67,1.01,14.37,68.46,-53.68,31.68
57717,0.53,-0.62,0.99,17.22,60.69,-63.94,31.68
57727,0.48,-0.55,0.94,23.08,59.21,-66.73,31.68
57737,0.45,-0.47,0.88,27.57,65.02,-63.47,31.59
57747,0.42,-0.42,0.86,28.34,75.19,-59.33,31.68
57757,0.35,-0.41,0.86,25.82,79.69,-58.11,31.68
57767,0.30,-0.39,0.86,21.22,80.00,-58.50,31.59
57777,0.24,-0.39,0.88,18.37,73.05,-60.02,31.59
57787,0.18,-0.36,0.89,17.69,64.64,-60.24,31.68
57797,0.15,-0.32,0.87,16.38,56.08,-57.24,31.73
57807,0.14,-0.28,0.86,15.54,48.93,-52.14,31.64
57817,0.16,-0.25,0.83,10.79,46.11,-47.37,31.64
57827,0.19,-0.23,0.84,4.44,43.76,-43.60,31.64
57837,0.22,-0.23,0.85,-1.05,44.02,-41.53,31.73
57847,0.22,-0.26,0.87,-4.06,44.14,-40.70,31.54
57857,0.21,-0.28,0.93,-6.35,41.16,-40.76,31.54
57867,0.20,-0.28,0.95,-6.41,36.58,-39.88,31.64
57877,0.22,-0.30,0.97,-5.36,32.93,-38.50,31.59
57887,0.24,-0.29,0.96,-5.98,31.51,-37.69,31.73
57897,0.27,-0.30,0.96,-5.04,33.05,-36.46,31.68
57907,0.31,-0.31,0.96,-3.39,38.64,-35.31,31.68
57917,0.33,-0.33,1.00,-1.04,46.24,-36.05,31.68
57927,0.29,-0.35,1.02,2.34,51.02,-37.21,31.68
57937,0.27,-0.34,1.04,6.99,54.67,-36.40,31.68
57947,0.25,-0.32,1.03,9.98,55.36,-36.24,31.68
57957,0.23,-0.31,0.99,10.61,52.55,-35.91,31.68
57967,0.25,-0.31,0.95,9.82,52.44,-35.77,31.68
57977,0.26,-0.31,0.93,9.91,49.50,-34.12,31.68
57987,0.30,-0.32,0.93,8.14,51.80,-34.11,31.59
57997,0.33,-0.33,0.94,5.34,55.04,-36.64,31.64
58007,0.30,-0.35,0.99,4.35,58.11,-39.92,31.64
58017,0.24,-0.37,1.05,6.58,53.59,-41.53,31.73
58027,0.24,-0.39,1.06,11.19,51.73,-42.43,31.73
58037,0.24,-0.37,1.05,15.18,51.15,-42.27,31.64
58047,0.26,-0.37,1.04,17.31,50.46,-42.40,31.64
58057,0.28,-0.34,1.01,18.70,53.28,-43.10,31.64
58067,0.29,-0.32,0.99,17.51,55.56,-45.47,31.64
58077,0.28,-0.30,1.00,15.54,56.76,-49.40,31.64
58087,0.27,-0.29,0.99,14.18,56.40,-54.90,31.68
58097,0.23,-0.28,1.02,12.90,55.89,-60.73,31.64
58107,0.16,-0.25,1.01,10.44,50.29,-65.47,31.59
58117,0.11,-0.23,1.01,9.13,47.18,-66.17,31.59
58127,0.06,-0.23,1.02,8.21,42.09,-63.86,31.68
58137,0.03,-0.23,1.06,8.96,39.27,-59.28,31.78
58147,0.02,-0.22,1.06,10.99,35.28,-55.10,31.68
58157,0.03,-0.20,1.05,11.16,31.98,-51.82,31.68
58167,0.04,-0.16,1.02,10.84,27.76,-48.92,31.68
58177,0.07,-0.15,1.00,9.24,27.62,-45.82,31.59
58187,0.10,-0.16,0.99,7.10,28.40,-44.53,31.68
58197,0.11,-0.18,0.99,3.77,27.83,-46.46,31.68
58207,0.11,-0.17,1.00,1.68,25.57,-49.10,31.59
58217,0.13,-0.18,0.99,0.85,25.48,-51.22,31.64
58227,0.14,-0.17,0.99,0.84,26.61,-50.58,31.64
58237,0.18,-0.17,1.01,0.98,31.74,-48.78,31.64
58247,0.20,-0.23,1.03,1.44,34.11,-48.50,31.64
58257,0.21,-0.27,1.05,1.88,35.89,-50.72,31.64
58267,0.19,-0.29,1.06,1.60,35.73,-55.89,31.73
58277,0.16,-0.29,1.06,1.53,33.97,-59.89,31.73
58287,0.12,-0.27,1.04,2.06,32.43,-59.45,31.73
58297,0.10,-0.23,1.05,1.95,32.63,-58.98,31.68
58307,0.08,-0.22,1.07,0.50,29.42,-58.53,31.73
58317,0.07,-0.23,1.07,-0.43,26.21,-58.24,31.73
58327,0.06,-0.25,1.08,1.25,22.03,-57.65,31.68
58337,0.04,-0.24,1.06,1.80,17.51,-55.92,31.68
58347,0.03,-0.23,1.04,2.96,14.79,-54.89,31.68
58357,0.04,-0.20,1.01,0.96,11.76,-54.00,31.68
58367,0.06,-0.16,0.99,-1.95,11.01,-52.99,31.68
58377,0.09,-0.15,0.96,-4.31,13.08,-51.95,31.68
58387,0.09,-0.15,0.97,-7.28,16.89,-51.68,31.68
58397,0.08,-0.17,1.01,-8.44,22.05,-52.58,31.78
58407,0.05,-0.19,1.04,-7.51,24.02,-54.66,31.68
58417,-0.00,-0.19,1.06,-5.74,22.98,-56.18,31.68
58427,-0.04,-0.17,1.09,-3.45,17.36,-57.05,31.68
58437,-0.07,-0.15,1.06,-1.53,12.60,-54.49,31.68
58447,-0.06,-0.12,1.02,-1.10,10.31,-49.33,31.64
58457,-0.03,-0.10,1.00,-3.74,9.80,-44.64,31.64
58467,0.00,-0.11,0.98,-7.19,11.07,-42.75,31.64
58477,0.04,-0.11,0.96,-10.06,12.32,-41.91,31.73
58487,0.07,-0.12,0.93,-12.00,15.31,-41.62,31.64
58497,0.08,-0.13,0.93,-15.73,18.81,-43.34,31.73
58507,0.08,-0.16,0.96,-19.36,19.60,-46.87,31.64
58517,0.06,-0.17,1.00,-19.95,19.82,-49.71,31.64
58527,0.01,-0.21,1.06,-17.71,17.45,-50.63,31.64
58537,-0.02,-0.23,1.10,-12.92,16.26,-50.08,31.64
58547,-0.04,-0.23,1.08,-7.34,14.98,-48.70,31.59
58557,-0.01,-0.19,1.04,-2.90,15.33,-45.73,31.64
58567,0.02,-0.15,0.98,-1.53,18.29,-41.95,31.59
58577,0.04,-0.13,0.95,-4.43,21.71,-40.02,31.59
58587,0.05,-0.15,0.96,-7.89,25.30,-39.85,31.68
58597,0.03,-0.16,0.99,-10.50,25.88,-41.71,31.68
58607,0.01,-0.16,1.00,-13.37,23.21,-44.47,31.68
58617,0.00,-0.16,1.00,-13.76,19.74,-44.84,31.68
58627,0.01,-0.17,1.00,-12.98,20.52,-42.96,31.68
58637,0.00,-0.20,1.04,-12.72,20.78,-41.57,31.68
58647,-0.01,-0.22,1.08,-11.19,21.25,-40.49,31.68
58657,-0.02,-0.23,1.08,-7.45,21.01,-39.66,31.68
58667,-0.01,-0.22,1.07,-3.65,18.37,-38.85,31.68
58677,0.01,-0.18,1.03,-4.66,17.37,-39.89,31.68
58687,0.00,-0.16,1.01,-7.66,13.91,-41.01,31.64
58697,0.01,-0.15,0.99,-11.69,12.50,-41.54,31.64
58707,0.02,-0.14,0.98,-13.63,15.07,-42.00,31.64
58717,0.02,-0.15,0.98,-15.40,19.86,-42.05,31.73
58727,-0.02,-0.19,1.02,-14.96,22.72,-42.44,31.64
58737,-0.07,-0.22,1.06,-12.15,21.69,-41.62,31.73
58747,-0.11,-0.20,1.08,-9.50,17.40,-39.10,31.73
58757,-0.10,-0.18,1.05,-8.43,11.89,-35.77,31.68
58767,-0.06,-0.15,1.02,-9.59,11.08,-32.73,31.64
58777,-0.02,-0.15,1.00,-12.00,13.42,-30.63,31.64
58787,0.01,-0.17,1.02,-14.46,16.00,-30.52,31.64
58797,0.01,-0.19,1.03,-15.11,18.81,-31.24,31.68
58807,0.02,-0.19,1.04,-13.44,22.96,-32.09,31.59
58817,0.03,-0.21,1.06,-10.64,26.70,-32.56,31.59
58827,0.00,-0.24,1.08,-6.31,27.62,-32.50,31.59
58837,0.02,-0.28,1.08,-0.87,33.11,-33.42,31.68
58847,0.04,-0.28,1.09,4.85,42.06,-35.11,31.59
58857,0.01,-0.24,1.08,6.98,47.50,-39.01,31.68
58867,-0.05,-0.19,1.08,6.46,49.30,-40.78,31.68
58877,-0.12,-0.17,1.09,4.24,46.14,-41.39,31.68
58887,-0.17,-0.15,1.10,0.31,38.81,-42.38,31.78
58897,-0.19,-0.15,1.12,-3.74,28.46,-42.44,31.64
58907,-0.19,-0.16,1.10,-7.51,17.82,-41.86,31.73
58917,-0.18,-0.17,1.08,-10.14,7.69,-40.67,31.73
58927,-0.14,-0.18,1.05,-11.68,3.16,-38.05,31.73
58937,-0.08,-0.17,1.01,-10.34,6.27,-33.47,31.64
58947,-0.03,-0.20,1.00,-8.79,15.45,-30.67,31.64
58957,-0.01,-0.23,1.02,-8.61,21.98,-30.64,31.64
58967,-0.03,-0.24,1.03,-7.89,23.54,-32.96,31.68
58977,-0.05,-0.24,1.04,-7.28,24.00,-35.60,31.64
58987,-0.05,-0.23,1.04,-6.58,22.53,-37.54,31.73
58997,-0.06,-0.21,1.04,-7.57,20.61,-39.44,31.64
59007,-0.06,-0.20,1.03,-9.54,18.82,-40.98,31.68
59017,-0.06,-0.21,1.03,-11.95,16.37,-41.76,31.78
59027,-0.07,-0.21,1.04,-14.34,13.47,-42.40,31.68
59037,-0.08,-0.23,1.07,-15.31,9.48,-42.41,31.68
59047,-0.07,-0.24,1.06,-14.85,7.77,-40.87,31.68
59057,-0.05,-0.24,1.06,-13.28,8.06,-40.66,31.68
59067,-0.02,-0.24,1.06,-13.80,9.44,-41.88,31.68
59077,0.02,-0.25,1.04,-14.29,12.05,-46.58,31.59
59087,0.04,-0.27,1.04,-15.86,11.60,-53.69,31.68
59097,0.04,-0.28,1.02,-18.87,11.51,-61.54,31.68
59107,-0.02,-0.29,1.08,-19.63,6.49,-66.67,31.68
59117,-0.06,-0.28,1.08,-18.70,2.93,-67.28,31.68
59127,-0.08,-0.27,1.08,-18.73,5.22,-64.35,31.64
59137,-0.09,-0.23,1.08,-19.44,2.29,-60.50,31.64
59147,-0.08,-0.25,1.09,-18.37,4.93,-60.41,31.64
59157,-0.08,-0.27,1.07,-18.00,-5.88,-62.17,31.73
59167,-0.05,-0.27,1.05,-20.31,-14.50,-64.34,31.64
59177,-0.01,-0.25,1.02,-18.92,-16.61,-64.78,31.73
59187,0.04,-0.26,1.02,-15.30,-9.86,-63.54,31.73
59197,0.09,-0.29,1.00,-13.47,3.39,-63.48,31.73
59207,0.09,-0.32,1.03,-13.95,13.71,-67.79,31.73
59217,0.03,-0.35,1.06,-12.67,17.76,-73.28,31.68
59227,-0.04,-0.35,1.08,-10.27,14.50,-76.61,31.64
59237,-0.03,-0.33,1.05,-5.85,11.05,-78.75,31.68
59247,-0.01,-0.28,0.97,-6.43,10.31,-80.98,31.59
59257,-0.01,-0.24,0.93,-11.77,14.96,-81.01,31.68
59267,-0.05,-0.20,0.95,-17.54,15.65,-77.80,31.78
59277,-0.06,-0.19,1.00,-21.76,18.14,-73.48,31.68
59287,-0.05,-0.20,0.97,-21.56,30.35,-68.37,31.68
59297,-0.11,-0.25,1.02,-23.51,29.85,-65.25,31.68
59307,-0.15,-0.28,1.07,-21.77,25.92,-62.53,31.59
59317,-0.16,-0.30,1.10,-17.76,20.00,-60.08,31.68
59327,-0.14,-0.31,1.08,-13.51,14.34,-58.90,31.68
59337,-0.13,-0.30,1.04,-10.84,10.11,-57.11,31.78
59347,-0.08,-0.30,1.02,-9.08,11.77,-55.30,31.68
59357,-0.04,-0.30,0.98,-8.05,19.50,-53.65,31.68
59367,-0.03,-0.30,0.97,-6.14,30.50,-48.96,31.73
59377,-0.04,-0.31,0.96,-1.69,46.82,-42.02,31.73
59387,-0.02,-0.33,0.95,6.50,66.31,-34.67,31.64
59397,0.00,-0.32,0.91,12.99,86.69,-29.77,31.64
59407,0.01,-0.31,0.89,15.25,104.60,-30.85,31.64
59417,-0.05,-0.30,0.93,14.44,114.05,-38.09,31.64
59427,-0.16,-0.30,0.97,10.61,116.84,-45.77,31.68
59437,-0.29,-0.28,1.04,7.07,108.53,-52.47,31.64
59447,-0.35,-0.27,1.09,5.62,91.07,-56.31,31.54
59457,-0.35,-0.24,1.07,6.24,66.38,-60.47,31.64
59467,-0.29,-0.22,1.04,1.50,38.99,-67.21,31.68
59477,-0.21,-0.25,0.99,-6.63,15.88,-74.56,31.68
59487,-0.15,-0.27,0.96,-11.85,9.65,-73.18,31.78
59497,-0.07,-0.30,0.95,-9.82,20.50,-65.95,31.68
59507,-0.02,-0.34,0.96,-5.76,46.44,-59.89,31.68
59517,-0.03,-0.37,0.98,-2.34,67.05,-60.00,31.68
59527,-0.09,-0.37,1.01,-5.73,70.69,-66.32,31.68
59537,-0.19,-0.37,1.06,-8.26,56.05,-74.34,31.68
59547,-0.26,-0.34,1.10,-8.69,34.35,-79.48,31.68
59557,-0.28,-0.30,1.09,-12.31,14.61,-80.37,31.68
59567,-0.29,-0.29,1.11,-15.80,1.73,-74.49,31.59
59577,-0.30,-0.29,1.13,-14.09,-11.01,-65.47,31.68
59587,-0.24,-0.30,1.11,-10.87,-18.44,-56.05,31.73
59597,-0.14,-0.30,1.05,-8.87,-24.81,-50.55,31.73
59607,-0.06,-0.31,1.00,-9.27,-27.48,-49.44,31.64
59617,0.01,-0.34,0.98,-12.84,-21.16,-52.24,31.64
