Millis,Acce_X,Acce_Y,Acce_Z,Gyro_X,Gyro_Y,Gyro_Z,Temp
54227,0.19,-0.49,1.10,-11.21,36.53,35.95,30.37
54237,0.22,-0.55,1.22,-8.31,18.90,33.63,30.37
54247,0.34,-0.64,1.21,-7.08,7.95,23.62,30.55
54257,0.46,-0.69,1.26,-4.38,-4.69,9.80,30.55
54267,0.60,-0.70,1.24,1.27,-6.95,-4.89,30.41
54277,0.65,-0.73,1.21,7.97,4.99,-18.21,30.41
54287,0.64,-0.75,1.20,12.46,25.39,-29.62,30.41
54297,0.56,-0.74,1.24,17.05,45.10,-36.53,30.41
54307,0.47,-0.75,1.24,27.10,57.02,-44.29,30.46
54317,0.39,-0.73,1.20,37.31,61.60,-53.68,30.32
54327,0.29,-0.68,1.13,45.36,60.40,-61.25,30.55
54337,0.18,-0.57,1.03,48.27,58.09,-67.39,30.46
54347,0.08,-0.45,0.95,43.85,57.08,-71.08,30.46
54357,0.00,-0.32,0.87,40.31,52.98,-67.73,30.46
54367,-0.05,-0.24,0.83,34.84,51.18,-58.96,30.37
54377,-0.03,-0.24,0.84,27.91,51.88,-49.21,30.37
54387,0.01,-0.28,0.89,22.63,49.71,-44.99,30.51
54397,0.09,-0.34,0.96,19.71,45.37,-44.98,30.41
54407,0.13,-0.45,0.98,19.86,36.43,-51.62,30.51
54417,0.11,-0.50,1.02,17.59,33.39,-65.31,30.51
54427,0.05,-0.48,1.07,21.19,28.29,-75.79,30.51
54437,-0.00,-0.45,1.04,27.42,29.34,-78.40,30.46
54447,-0.03,-0.42,1.03,31.74,31.11,-76.29,30.46
54457,0.00,-0.39,0.99,33.53,33.40,-74.02,30.46
54467,0.04,-0.38,0.99,30.50,31.37,-74.73,30.37
54477,0.13,-0.42,1.00,26.98,24.40,-78.93,30.46
54487,0.18,-0.51,1.02,28.17,15.45,-88.82,30.46
54497,0.23,-0.54,1.04,28.58,10.55,-100.21,30.37
54507,0.20,-0.62,1.04,28.05,8.46,-116.31,30.41
54517,0.10,-0.59,1.08,29.66,7.07,-133.57,30.41
54527,-0.04,-0.52,1.06,36.56,1.15,-141.24,30.32
54537,-0.10,-0.44,0.96,39.44,1.80,-138.56,30.41
54547,-0.14,-0.39,0.92,40.12,-3.22,-132.70,30.41
54557,-0.10,-0.36,0.87,34.40,-5.31,-127.37,30.46
54567,-0.04,-0.36,0.84,24.79,-4.98,-122.78,30.46
54577,0.05,-0.39,0.80,15.76,0.60,-120.64,30.46
54587,0.13,-0.46,0.80,10.11,15.33,-120.20,30.37
54597,0.16,-0.50,0.81,8.99,36.53,-119.89,30.46
54607,0.14,-0.56,0.89,12.15,56.79,-121.56,30.46
54617,0.07,-0.60,0.97,16.90,67.25,-126.35,30.32
54627,-0.01,-0.62,1.02,22.53,64.69,-130.92,30.41
54637,-0.06,-0.66,1.05,25.79,52.82,-136.76,30.41
54647,-0.02,-0.68,1.09,24.20,43.77,-147.34,30.41
54657,0.02,-0.73,1.03,27.27,39.31,-159.83,30.37
54667,0.05,-0.74,0.98,29.98,54.46,-164.03,30.41
54677,0.02,-0.74,0.98,34.40,78.75,-160.69,30.46
54687,-0.07,-0.70,1.00,40.05,105.45,-156.81,30.46
54697,-0.23,-0.69,1.11,44.27,110.76,-159.50,30.46
54707,-0.35,-0.70,1.18,52.52,82.84,-168.60,30.37
54717,-0.41,-0.67,1.11,58.32,45.95,-179.94,30.46
54727,-0.44,-0.63,1.05,62.89,8.82,-186.79,30.41
54737,-0.40,-0.53,0.92,64.08,-11.31,-185.71,30.41
54747,-0.29,-0.46,0.77,58.06,-2.03,-175.39,30.41
54757,-0.20,-0.42,0.64,51.22,25.79,-158.40,30.41
54767,-0.17,-0.45,0.67,42.49,55.34,-146.17,30.41
54777,-0.20,-0.47,0.71,35.15,71.60,-139.98,30.41
54787,-0.25,-0.45,0.75,25.18,77.25,-140.09,30.46
54797,-0.28,-0.46,0.78,18.35,67.22,-139.47,30.46
54807,-0.32,-0.44,0.81,13.91,56.34,-140.23,30.37
54817,-0.35,-0.43,0.83,10.93,44.58,-142.08,30.37
54827,-0.35,-0.44,0.81,8.12,34.52,-140.75,30.46
54837,-0.33,-0.45,0.83,3.21,22.82,-139.66,30.41
54847,-0.26,-0.46,0.79,-2.15,17.71,-139.21,30.41
54857,-0.20,-0.43,0.71,-8.02,26.12,-134.46,30.41
54867,-0.17,-0.42,0.68,-12.50,47.50,-125.53,30.51
54877,-0.22,-0.44,0.74,-15.98,68.23,-116.29,30.46
54887,-0.29,-0.44,0.83,-21.01,78.35,-112.38,30.41
54897,-0.35,-0.46,0.88,-23.05,75.25,-110.09,30.37
54907,-0.41,-0.46,0.92,-23.69,68.08,-110.05,30.37
54917,-0.45,-0.48,0.97,-20.00,51.88,-113.01,30.46
54927,-0.40,-0.48,0.95,-17.54,39.18,-116.06,30.37
54937,-0.40,-0.46,0.93,-19.53,26.53,-119.62,30.46
54947,-0.38,-0.45,0.89,-24.14,19.30,-122.63,30.51
54957,-0.30,-0.46,0.86,-26.46,15.08,-122.46,30.41
54967,-0.25,-0.47,0.83,-28.12,17.42,-120.78,30.41
54977,-0.16,-0.48,0.76,-26.05,31.95,-116.15,30.41
54987,-0.14,-0.48,0.73,-27.02,50.84,-108.79,30.41
54997,-0.14,-0.51,0.76,-26.92,65.51,-104.06,30.41
55007,-0.15,-0.52,0.77,-26.40,73.95,-104.00,30.37
55017,-0.18,-0.54,0.80,-26.41,70.55,-108.40,30.37
55027,-0.21,-0.56,0.83,-25.39,57.31,-116.46,30.37
55037,-0.21,-0.56,0.82,-23.79,40.89,-123.34,30.37
55047,-0.17,-0.58,0.81,-21.30,27.86,-128.78,30.46
55057,-0.13,-0.60,0.79,-17.82,19.50,-131.71,30.41
55067,-0.07,-0.62,0.74,-17.85,23.73,-132.34,30.41
55077,-0.03,-0.64,0.70,-17.91,29.22,-133.85,30.41
55087,-0.04,-0.63,0.66,-21.85,33.89,-136.17,30.41
55097,-0.02,-0.60,0.60,-24.56,43.16,-134.96,30.46
55107,-0.03,-0.61,0.56,-25.95,56.96,-129.92,30.41
55117,-0.03,-0.66,0.60,-26.41,71.27,-126.84,30.46
55127,-0.07,-0.70,0.64,-27.66,77.74,-128.08,30.46
55137,-0.14,-0.68,0.70,-29.39,74.02,-133.56,30.46
55147,-0.20,-0.67,0.71,-28.99,58.35,-138.24,30.46
55157,-0.24,-0.66,0.70,-30.96,49.66,-140.09,30.46
55167,-0.23,-0.67,0.72,-33.89,49.53,-139.47,30.46
55177,-0.24,-0.72,0.79,-30.43,52.56,-135.48,30.32
55187,-0.24,-0.77,0.82,-25.95,58.50,-133.57,30.41
55197,-0.24,-0.80,0.87,-20.84,60.61,-134.09,30.41
55207,-0.25,-0.80,0.89,-9.42,58.73,-135.91,30.41
55217,-0.25,-0.79,0.86,-2.37,55.05,-137.89,30.51
55227,-0.27,-0.72,0.81,-2.58,50.55,-138.24,30.46
55237,-0.31,-0.66,0.80,-9.13,44.53,-136.02,30.37
55247,-0.32,-0.64,0.80,-12.66,40.89,-130.67,30.55
55257,-0.31,-0.66,0.82,-12.23,39.18,-125.34,30.46
55267,-0.28,-0.68,0.79,-11.36,40.18,-121.80,30.46
55277,-0.27,-0.66,0.78,-10.90,42.84,-120.12,30.37
55287,-0.26,-0.67,0.78,-11.36,46.84,-115.34,30.51
55297,-0.26,-0.67,0.81,-10.92,50.44,-111.50,30.51
55307,-0.28,-0.65,0.84,-12.87,51.08,-108.31,30.41
55317,-0.30,-0.66,0.86,-15.79,43.21,-105.73,30.46
55327,-0.27,-0.70,0.83,-18.15,38.37,-102.21,30.32
55337,-0.23,-0.73,0.85,-18.84,36.06,-100.12,30.41
55347,-0.24,-0.76,0.89,-18.78,40.23,-97.04,30.46
55357,-0.28,-0.74,0.94,-16.93,46.03,-93.21,30.37
55367,-0.28,-0.75,1.02,-11.30,50.93,-86.92,30.46
55377,-0.30,-0.77,1.06,-2.27,49.27,-85.74,30.46
55387,-0.30,-0.76,1.02,5.45,44.92,-86.08,30.46
55397,-0.28,-0.70,0.96,8.85,39.33,-87.51,30.41
55407,-0.34,-0.65,0.97,4.78,33.08,-88.27,30.32
55417,-0.37,-0.65,1.02,5.27,18.44,-82.84,30.41
55427,-0.27,-0.69,1.00,7.92,10.56,-76.18,30.41
55437,-0.13,-0.67,0.90,6.15,16.23,-72.82,30.51
55447,-0.11,-0.61,0.83,3.85,33.01,-64.00,30.37
55457,-0.15,-0.55,0.80,1.27,54.76,-53.11,30.37
55467,-0.21,-0.55,0.78,-13.74,77.85,-47.05,30.46
55477,-0.28,-0.55,0.87,-21.44,87.63,-40.60,30.46
55487,-0.31,-0.55,0.94,-31.95,70.00,-43.68,30.46
55497,-0.30,-0.54,1.01,-39.13,47.04,-46.76,30.46
55507,-0.31,-0.48,1.05,-50.37,5.18,-53.88,30.46
55517,-0.25,-0.43,1.10,-46.32,-1.95,-40.93,30.41
55527,0.08,-0.51,1.02,-38.81,-25.66,-37.73,30.32
55537,0.15,-0.70,0.99,-42.49,-20.06,-52.49,30.41
55547,0.34,-0.83,0.89,-35.97,8.17,-60.17,30.51
55557,0.22,-0.72,0.83,-34.02,60.76,-64.64,30.51
55567,-0.34,-0.72,0.85,-18.37,105.48,-47.31,30.46
55577,-1.31,-0.45,1.21,2.12,64.78,4.11,30.37
55587,-1.73,-0.39,1.26,24.41,-23.16,63.44,30.46
55597,-1.21,-0.62,0.93,-5.47,-17.04,49.25,30.46
55607,-0.82,-0.77,0.88,-35.37,0.85,15.74,30.46
55617,-0.44,-0.81,0.83,-38.72,7.92,3.54,30.37
55627,-0.20,-0.75,0.72,-16.82,24.63,5.47,30.51
55637,-0.07,-0.57,0.63,10.70,25.91,16.53,30.41
55647,0.10,-0.40,0.70,29.66,-4.58,18.52,30.41
55657,0.27,-0.46,0.61,10.23,-8.76,13.34,30.41
55667,0.36,-0.56,0.66,-14.63,-10.70,0.29,30.46
55677,0.29,-0.58,0.72,-16.35,-2.52,-10.29,30.51
55687,0.11,-0.57,0.74,-8.85,-5.27,-11.10,30.37
55697,0.03,-0.44,0.90,-11.60,-5.04,-6.14,30.37
55707,-0.21,-0.54,1.00,-8.11,-24.26,-1.24,30.46
55717,-0.21,-0.59,1.01,1.69,-23.44,4.79,30.55
55727,-0.23,-0.77,1.02,-0.29,-21.34,-0.58,30.37
55737,-0.16,-0.77,0.95,1.77,-14.24,-2.37,30.41
55747,-0.11,-0.72,0.90,3.60,-4.90,-2.03,30.32
55757,-0.11,-0.69,0.89,4.49,0.85,1.86,30.41
55767,-0.07,-0.69,0.89,5.71,6.12,2.87,30.51
55777,-0.05,-0.67,0.89,5.88,5.21,0.35,30.41
55787,-0.04,-0.66,0.87,4.26,0.79,-3.63,30.51
55797,-0.02,-0.62,0.87,2.58,-3.05,-5.69,30.46
55807,-0.01,-0.57,0.84,1.77,-4.37,-5.59,30.46
55817,-0.03,-0.57,0.86,0.32,-7.40,-5.76,30.37
55827,-0.07,-0.59,0.86,-0.03,-6.99,-6.40,30.37
55837,-0.12,-0.58,0.87,-0.66,-3.82,-5.97,30.46
55847,-0.20,-0.60,0.89,-0.37,-4.44,-5.54,30.55
55857,-0.30,-0.61,0.92,0.08,-9.40,-5.04,30.46
55867,-0.38,-0.62,0.94,-1.39,-12.03,-0.53,30.41
55877,-0.50,-0.64,0.94,-3.69,-14.05,5.56,30.41
55887,-0.60,-0.67,0.98,-2.35,-21.91,8.75,30.41
55897,-0.71,-0.69,1.00,-0.14,-30.12,18.24,30.51
55907,-0.79,-0.74,0.97,13.53,-42.90,21.02,30.51
55917,-0.79,-0.71,1.00,16.99,-60.89,29.08,30.46
55927,-0.73,-0.71,0.97,22.61,-60.41,37.56,30.46
55937,-0.78,-0.73,0.92,20.56,-82.03,47.56,30.46
55947,-0.79,-0.69,0.96,25.68,-74.56,63.22,30.55
55957,-0.74,-0.68,0.97,22.63,-74.90,79.25,30.46
55967,-0.63,-0.68,1.02,17.27,-76.60,78.26,30.46
55977,-0.58,-0.76,1.08,16.38,-99.39,75.31,30.41
55987,-0.50,-0.86,1.15,18.85,-124.73,66.05,30.51
55997,-0.42,-0.92,1.18,27.65,-159.50,53.85,30.51
56007,-0.20,-0.91,1.03,44.37,-174.29,49.44,30.41
56017,0.03,-0.81,0.89,54.82,-155.42,49.28,30.55
56027,0.10,-0.68,0.73,66.93,-123.45,60.08,30.41
56037,0.04,-0.54,0.72,67.82,-89.18,77.79,30.46
56047,-0.09,-0.47,0.78,66.18,-82.46,92.32,30.37
56057,-0.17,-0.41,0.79,48.89,-83.66,99.79,30.46
56067,-0.22,-0.38,0.80,31.59,-94.84,107.39,30.46
56077,-0.22,-0.41,0.86,26.78,-111.36,113.13,30.46
56087,-0.18,-0.50,0.86,27.39,-121.85,116.06,30.51
56097,-0.04,-0.66,0.88,36.78,-118.58,115.02,30.51
56107,0.08,-0.72,0.85,47.80,-102.99,108.69,30.41
56117,0.16,-0.71,0.82,57.74,-86.46,99.79,30.41
56127,0.13,-0.61,0.76,58.41,-73.63,94.85,30.41
56137,0.06,-0.46,0.67,55.28,-62.32,100.73,30.41
56147,-0.01,-0.35,0.62,43.69,-56.40,112.90,30.46
56157,-0.06,-0.35,0.63,27.59,-53.92,126.44,30.55
56167,-0.10,-0.37,0.67,10.89,-55.66,138.89,30.46
56177,-0.08,-0.47,0.76,6.40,-60.23,146.92,30.46
56187,0.00,-0.64,0.81,18.38,-58.15,152.98,30.46
56197,0.15,-0.75,0.80,33.07,-39.24,156.46,30.51
56207,0.18,-0.78,0.80,42.66,-18.72,152.93,30.51
56217,0.11,-0.76,0.87,43.42,-12.50,143.86,30.41
56227,-0.02,-0.71,0.94,38.90,-30.05,134.92,30.41
56237,-0.07,-0.69,0.91,33.73,-55.57,126.20,30.37
56247,-0.08,-0.66,0.83,29.53,-74.40,121.51,30.41
56257,-0.06,-0.64,0.75,24.90,-80.79,122.93,30.46
56267,-0.08,-0.63,0.73,18.03,-76.96,130.17,30.46
56277,-0.06,-0.66,0.76,16.38,-64.24,140.61,30.46
56287,-0.04,-0.73,0.81,22.67,-49.19,148.23,30.46
56297,-0.02,-0.81,0.89,33.07,-40.15,148.67,30.37
56307,-0.04,-0.80,0.91,37.48,-41.59,142.26,30.41
56317,-0.08,-0.79,0.93,38.40,-55.24,134.84,30.51
56327,-0.07,-0.78,0.89,38.43,-73.13,130.05,30.41
56337,-0.04,-0.74,0.78,37.62,-81.04,129.73,30.51
56347,0.02,-0.70,0.71,32.92,-75.15,134.43,30.41
56357,0.02,-0.70,0.72,28.12,-68.60,141.89,30.51
56367,0.03,-0.72,0.74,23.76,-62.61,146.67,30.37
56377,0.05,-0.76,0.79,22.70,-61.16,148.44,30.37
56387,0.10,-0.79,0.77,23.04,-59.27,147.74,30.37
56397,0.12,-0.79,0.74,25.04,-53.50,146.69,30.46
56407,0.11,-0.77,0.75,26.46,-49.16,147.65,30.37
56417,0.11,-0.76,0.75,27.30,-48.63,146.85,30.41
56427,0.12,-0.75,0.75,25.42,-54.98,144.29,30.41
56437,0.17,-0.73,0.70,21.77,-60.85,140.75,30.41
56447,0.22,-0.71,0.66,16.84,-61.19,138.96,30.51
56457,0.24,-0.70,0.63,12.53,-57.69,140.02,30.46
56467,0.24,-0.69,0.60,6.41,-50.76,142.41,30.46
56477,0.24,-0.65,0.58,-1.62,-43.50,144.20,30.46
56487,0.21,-0.63,0.59,-11.51,-40.63,146.15,30.37
56497,0.20,-0.62,0.61,-23.25,-41.76,146.46,30.37
56507,0.25,-0.66,0.64,-32.61,-45.25,142.53,30.46
56517,0.29,-0.69,0.73,-38.20,-45.11,132.82,30.46
56527,0.26,-0.74,0.85,-32.96,-43.88,125.45,30.41
56537,0.25,-0.75,0.92,-20.98,-36.93,120.00,30.41
56547,0.27,-0.78,0.95,-8.92,-29.40,117.57,30.60
56557,0.25,-0.77,0.98,-4.66,-26.35,107.34,30.41
56567,0.16,-0.77,1.06,-3.44,-40.73,94.85,30.41
56577,0.12,-0.72,1.02,0.21,-53.66,87.28,30.37
56587,0.13,-0.68,0.96,1.66,-58.89,83.16,30.46
56597,0.14,-0.67,0.94,3.24,-57.88,81.31,30.46
56607,0.15,-0.64,0.88,3.50,-51.16,80.46,30.46
56617,0.10,-0.62,0.90,2.99,-47.54,78.50,30.46
56627,0.06,-0.59,0.89,2.34,-46.82,78.06,30.37
56637,0.03,-0.58,0.89,0.23,-46.12,81.10,30.41
56647,0.05,-0.57,0.87,-0.20,-40.73,85.79,30.51
56657,0.07,-0.58,0.87,-1.73,-32.18,90.21,30.41
56667,0.07,-0.60,0.90,-3.86,-25.79,92.99,30.51
56677,0.05,-0.62,0.98,-5.56,-26.32,91.04,30.46
56687,0.02,-0.64,1.03,-3.40,-34.96,87.15,30.37
56697,0.04,-0.64,1.00,0.98,-44.14,84.50,30.46
56707,0.07,-0.62,0.99,4.14,-46.12,81.66,30.46
56717,0.07,-0.61,0.97,5.71,-45.82,80.95,30.46
56727,0.07,-0.57,0.94,7.15,-41.63,84.00,30.46
56737,0.10,-0.57,0.91,5.01,-37.62,86.76,30.46
56747,0.12,-0.57,0.91,3.15,-35.98,87.62,30.41
56757,0.13,-0.57,0.90,0.92,-35.48,86.61,30.41
56767,0.14,-0.56,0.89,-0.02,-32.12,86.69,30.41
56777,0.14,-0.55,0.90,0.12,-24.52,89.45,30.41
56787,0.18,-0.54,0.87,0.37,-11.62,93.44,30.41
56797,0.14,-0.56,0.95,-1.47,-7.80,93.01,30.46
56807,0.10,-0.56,0.97,-3.47,-12.67,90.75,30.46
56817,0.11,-0.56,0.98,-5.39,-23.47,87.34,30.46
56827,0.16,-0.58,0.97,-6.31,-30.21,83.21,30.37
56837,0.17,-0.58,0.98,-5.01,-33.10,80.64,30.46
56847,0.22,-0.58,0.95,-0.95,-28.23,80.89,30.46
56857,0.27,-0.57,0.93,2.00,-19.34,80.75,30.41
56867,0.28,-0.56,0.93,2.58,-13.71,76.52,30.41
56877,0.24,-0.55,0.95,0.66,-16.00,71.04,30.41
56887,0.23,-0.53,0.95,-0.58,-19.76,67.27,30.41
56897,0.23,-0.53,0.94,-1.86,-20.32,64.29,30.46
56907,0.25,-0.54,0.96,-1.91,-19.04,61.76,30.46
56917,0.25,-0.55,0.99,-1.47,-19.07,56.95,30.46
56927,0.24,-0.55,1.01,0.41,-22.49,52.37,30.37
56937,0.24,-0.55,1.01,2.85,-24.37,47.95,30.37
56947,0.24,-0.53,0.99,4.87,-24.96,45.36,30.37
56957,0.26,-0.51,0.96,5.04,-22.76,41.86,30.41
56967,0.26,-0.50,0.96,3.80,-20.89,39.25,30.41
56977,0.26,-0.50,0.95,2.49,-19.98,35.39,30.41
56987,0.25,-0.50,0.94,2.05,-17.28,32.58,30.27
56997,0.24,-0.50,0.93,2.46,-13.07,30.84,30.51
57007,0.22,-0.51,0.95,3.63,-12.67,31.15,30.46
57017,0.23,-0.50,0.93,3.33,-9.31,30.06,30.46
57027,0.25,-0.48,0.92,2.27,-7.89,29.79,30.37
57037,0.29,-0.46,0.90,1.30,-3.10,30.32,30.37
57047,0.35,-0.44,0.89,-1.60,5.13,30.85,30.46
57057,0.37,-0.46,0.91,-3.76,12.26,28.15,30.41
57067,0.36,-0.49,0.97,-5.82,16.87,23.54,30.41
57077,0.29,-0.54,1.09,-6.82,12.08,14.96,30.41
57087,0.21,-0.57,1.16,-2.12,-1.37,5.31,30.41
57097,0.14,-0.56,1.17,4.61,-14.44,-1.18,30.51
57107,0.14,-0.53,1.11,11.16,-21.25,-4.15,30.46
57117,0.14,-0.47,1.03,14.85,-20.75,-4.58,30.46
57127,0.13,-0.40,0.96,14.18,-14.79,-2.24,30.46
57137,0.13,-0.34,0.90,10.99,-6.21,3.36,30.55
57147,0.14,-0.34,0.88,7.56,0.34,8.27,30.46
57157,0.13,-0.36,0.88,3.53,5.08,10.64,30.46
57167,0.12,-0.38,0.91,1.40,4.27,10.73,30.51
57177,0.11,-0.39,0.94,0.98,4.20,9.89,30.32
57187,0.11,-0.39,0.94,2.09,5.54,10.00,30.41
57197,0.11,-0.39,0.95,3.45,8.60,11.60,30.32
57207,0.12,-0.41,0.96,2.63,10.50,11.11,30.46
57217,0.12,-0.41,0.97,1.05,8.64,9.04,30.27
57227,0.13,-0.41,0.98,-0.50,4.92,5.63,30.37
57237,0.11,-0.41,0.98,-0.87,0.96,2.73,30.46
57247,0.09,-0.40,0.96,-0.46,0.53,1.66,30.37
57257,0.08,-0.40,0.95,-0.58,2.27,2.70,30.27
57267,0.07,-0.39,0.96,-0.95,4.11,4.21,30.46
57277,0.07,-0.40,0.96,-0.49,5.44,4.79,30.51
57287,0.07,-0.40,0.96,-1.54,4.32,3.97,30.41
57297,0.07,-0.39,0.95,-1.66,4.27,3.30,30.41
57307,0.07,-0.40,0.94,-1.66,4.35,4.17,30.41
57317,0.09,-0.41,0.95,-1.28,6.52,5.22,30.41
57327,0.09,-0.42,0.95,-1.66,6.49,3.86,30.32
57337,0.08,-0.43,0.97,-2.73,3.01,0.06,30.37
57347,0.08,-0.42,0.97,-2.50,-0.73,-3.71,30.37
57357,0.06,-0.41,0.96,-1.05,-2.70,-5.88,30.46
57367,0.05,-0.40,0.95,-0.20,-2.60,-6.29,30.46
57377,0.01,-0.38,0.95,-0.87,-1.50,-4.55,30.37
57387,0.01,-0.39,0.93,-1.76,-0.03,-1.51,30.41
57397,0.00,-0.39,0.93,-3.79,1.82,-0.27,30.41
57407,-0.02,-0.39,0.94,-5.34,1.77,1.15,30.41
57417,0.00,-0.38,0.94,-6.21,2.27,3.15,30.51
57427,0.02,-0.39,0.93,-7.24,3.04,6.15,30.37
57437,0.06,-0.40,0.94,-8.15,4.50,7.48,30.41
57447,0.06,-0.42,0.98,-8.34,5.16,7.15,30.46
57457,0.08,-0.43,1.00,-7.25,5.44,6.49,30.37
57467,0.09,-0.44,1.01,-6.47,5.48,4.90,30.46
57477,0.09,-0.44,1.00,-6.11,3.83,1.82,30.46
57487,0.06,-0.44,1.02,-4.81,1.59,-1.33,30.46
57497,0.05,-0.44,1.00,-2.50,1.36,-1.19,30.41
57507,0.05,-0.41,0.98,-1.56,5.21,1.21,30.51
57517,0.06,-0.41,0.97,-1.16,10.60,3.57,30.41
57527,0.06,-0.42,0.97,-1.33,15.16,6.27,30.41
57537,0.05,-0.41,0.99,-3.57,16.00,6.05,30.41
57547,0.03,-0.40,1.00,-4.66,11.53,5.50,30.41
57557,0.03,-0.42,1.01,-4.40,6.29,4.82,30.46
57567,0.03,-0.43,1.02,-4.38,1.42,2.60,30.37
57577,0.04,-0.44,1.02,-5.30,-4.78,0.93,30.37
57587,0.06,-0.43,1.01,-6.37,-6.18,-0.15,30.37
57597,0.09,-0.43,1.01,-5.11,-4.26,-0.15,30.46
57607,0.11,-0.44,1.01,-3.51,1.51,-1.24,30.41
57617,0.10,-0.45,1.02,-2.05,4.23,-3.80,30.41
57627,0.08,-0.46,1.04,-0.23,5.25,-7.73,30.41
57637,0.04,-0.47,1.05,2.05,2.90,-9.85,30.41
57647,0.02,-0.44,1.02,3.39,0.82,-11.04,30.37
57657,-0.00,-0.43,1.01,2.53,-1.83,-11.65,30.41
57667,-0.02,-0.40,0.99,2.75,-4.23,-9.51,30.37
57677,-0.00,-0.38,0.96,1.97,-2.05,-6.29,30.46
57687,0.01,-0.38,0.94,0.17,2.24,-1.97,30.37
57697,0.03,-0.39,0.97,-1.82,6.02,1.91,30.46
57707,0.05,-0.40,0.97,-3.65,11.13,4.26,30.46
57717,0.09,-0.42,0.99,-5.01,17.76,5.68,30.37
57727,0.11,-0.45,1.04,-4.27,23.10,6.31,30.51
57737,0.11,-0.48,1.10,-0.96,24.92,6.78,30.51
57747,0.14,-0.52,1.12,3.50,27.45,5.27,30.41
57757,0.11,-0.52,1.16,8.44,28.18,3.22,30.41
57767,0.08,-0.54,1.19,11.89,26.17,-1.31,30.51
57777,0.02,-0.51,1.18,14.60,19.94,-7.60,30.37
57787,-0.04,-0.51,1.17,18.11,5.05,-12.76,30.46
57797,-0.06,-0.47,1.11,19.10,-10.06,-16.69,30.46
57807,-0.08,-0.40,1.02,19.01,-17.34,-17.57,30.46
57817,-0.05,-0.34,0.92,16.09,-15.28,-14.09,30.37
57827,-0.06,-0.30,0.90,13.05,-14.47,-8.93,30.51
57837,-0.05,-0.28,0.86,7.02,-10.84,-4.56,30.41
57847,-0.06,-0.28,0.86,1.16,-8.03,-0.72,30.41
57857,-0.04,-0.29,0.87,-2.23,-4.96,2.96,30.41
57867,-0.02,-0.31,0.90,-4.00,-0.58,6.43,30.46
57877,-0.02,-0.34,0.92,-5.08,1.65,8.46,30.41
57887,-0.02,-0.37,0.96,-5.15,0.75,8.03,30.37
57897,-0.01,-0.37,0.99,-3.07,-0.99,6.92,30.37
57907,0.01,-0.38,0.98,-0.26,-1.68,4.41,30.37
57917,0.01,-0.37,0.98,1.25,-2.03,2.31,30.37
57927,0.02,-0.35,0.96,1.47,-1.69,0.90,30.46
57937,0.01,-0.34,0.94,0.27,-2.12,0.66,30.46
57947,-0.00,-0.34,0.94,-1.25,-4.02,-0.11,30.51
57957,-0.02,-0.34,0.94,-2.26,-6.46,-0.05,30.51
57967,-0.02,-0.34,0.93,-3.37,-6.89,1.28,30.41
57977,-0.02,-0.35,0.93,-3.66,-5.24,3.53,30.41
57987,-0.00,-0.34,0.93,-4.26,-3.01,6.35,30.51
57997,0.02,-0.35,0.94,-5.85,-2.00,8.47,30.37
58007,0.04,-0.36,0.95,-7.59,-0.78,9.16,30.37
58017,0.07,-0.38,0.97,-7.76,-0.17,7.98,30.46
58027,0.10,-0.39,0.98,-6.35,1.22,7.01,30.46
58037,0.10,-0.41,1.00,-5.31,0.37,5.19,30.37
58047,0.09,-0.42,1.00,-4.41,0.14,1.71,30.46
58057,0.06,-0.40,1.01,-2.99,-1.28,-0.02,30.51
58067,0.06,-0.39,1.00,-2.63,-1.04,0.21,30.41
58077,0.07,-0.38,0.99,-3.53,-0.44,0.32,30.41
58087,0.06,-0.37,0.97,-4.66,0.47,1.31,30.46
58097,0.06,-0.38,1.00,-5.89,2.03,1.65,30.41
58107,0.06,-0.38,0.99,-6.41,3.05,2.18,30.37
58117,0.05,-0.39,1.01,-5.63,3.04,2.17,30.37
58127,0.05,-0.39,1.01,-4.55,1.86,1.92,30.37
58137,0.05,-0.38,1.02,-5.11,-0.43,0.63,30.46
58147,0.06,-0.38,0.99,-5.74,-2.06,-0.03,30.46
58157,0.07,-0.38,0.97,-5.89,-2.95,0.41,30.51
58167,0.08,-0.37,0.98,-6.56,-0.79,0.46,30.41
58177,0.08,-0.38,0.98,-6.50,2.76,1.04,30.41
58187,0.08,-0.38,0.99,-7.04,3.85,0.89,30.51
58197,0.07,-0.38,1.00,-7.27,2.49,-0.50,30.41
58207,0.06,-0.38,1.02,-7.40,0.55,-1.97,30.41
58217,0.07,-0.38,1.02,-5.85,1.11,-2.21,30.37
58227,0.08,-0.39,1.01,-4.44,3.98,-2.21,30.37
58237,0.08,-0.38,1.00,-2.79,6.99,-2.60,30.37
58247,0.06,-0.39,0.99,-2.41,6.92,-1.54,30.37
58257,0.08,-0.38,0.98,-4.44,5.98,-2.03,30.37
58267,0.08,-0.38,0.99,-5.11,6.78,-4.06,30.41
58277,0.07,-0.40,0.99,-4.61,8.69,-5.27,30.51
58287,0.05,-0.40,0.99,-3.63,9.13,-7.47,30.41
58297,-0.01,-0.36,0.98,-2.60,5.86,-7.60,30.41
58307,-0.00,-0.36,0.97,-3.85,2.72,-6.93,30.37
58317,0.01,-0.36,0.96,-5.91,2.14,-5.95,30.41
58327,0.01,-0.35,0.96,-7.28,4.06,-4.81,30.46
58337,0.02,-0.36,0.96,-9.18,7.50,-3.33,30.46
58347,0.01,-0.37,0.97,-9.59,8.21,-1.82,30.46
58357,0.00,-0.39,0.99,-8.44,6.82,0.32,30.37
58367,-0.00,-0.39,0.99,-8.64,9.02,1.54,30.46
58377,-0.01,-0.39,0.98,-8.08,11.63,2.72,30.41
58387,0.00,-0.39,0.99,-7.04,14.11,4.00,30.41
58397,0.01,-0.40,1.01,-6.73,14.03,3.30,30.41
58407,-0.01,-0.40,1.01,-7.48,10.29,1.22,30.32
58417,-0.01,-0.40,1.02,-8.40,4.24,-1.88,30.41
58427,-0.00,-0.40,1.02,-7.45,-0.56,-3.21,30.51
58437,0.01,-0.41,1.01,-6.11,-0.50,-2.24,30.46
58447,0.01,-0.41,1.01,-5.11,3.36,-1.48,30.37
58457,0.01,-0.41,1.02,-4.52,5.53,-1.83,30.46
58467,-0.00,-0.41,1.01,-4.73,3.82,-2.60,30.37
58477,-0.01,-0.42,1.02,-5.16,0.26,-3.45,30.46
58487,-0.00,-0.40,1.00,-4.50,0.32,-3.21,30.41
58497,0.01,-0.40,1.00,-4.05,3.60,-1.66,30.41
58507,0.00,-0.41,1.00,-3.62,6.82,-0.50,30.41
58517,-0.02,-0.40,1.01,-3.73,6.61,-0.55,30.41
58527,-0.02,-0.40,1.00,-4.46,4.06,-1.85,30.46
58537,-0.03,-0.39,0.98,-5.11,1.73,-1.53,30.41
58547,-0.03,-0.39,1.00,-5.33,0.84,-0.90,30.46
58557,-0.02,-0.40,1.00,-5.65,2.58,0.44,30.46
58567,-0.02,-0.40,1.01,-6.09,2.50,1.11,30.46
58577,-0.03,-0.42,1.01,-4.63,-1.21,1.59,30.46
58587,-0.02,-0.43,1.03,-4.37,-4.15,-0.15,30.46
58597,-0.02,-0.41,1.01,-2.95,-5.25,-0.50,30.37
58607,-0.01,-0.39,0.99,-2.46,-3.63,1.79,30.51
58617,0.01,-0.39,0.98,-2.82,0.43,4.11,30.41
58627,0.03,-0.39,0.98,-3.97,5.13,4.49,30.41
58637,0.03,-0.41,0.99,-5.44,6.12,2.85,30.41
58647,0.02,-0.41,1.01,-5.66,4.29,0.64,30.51
58657,0.03,-0.40,1.00,-4.99,1.80,-0.37,30.46
58667,0.03,-0.42,0.98,-2.95,0.26,0.32,30.46
58677,0.04,-0.41,1.00,-2.73,1.56,0.35,30.37
58687,0.03,-0.40,1.00,-2.29,1.91,-0.18,30.37
58697,0.02,-0.39,1.00,-1.80,1.16,-0.11,30.46
58707,0.03,-0.39,0.99,-1.33,1.16,-0.43,30.37
58717,0.04,-0.40,0.98,-2.21,-0.09,-1.22,30.51
58727,0.02,-0.39,0.99,-2.29,-0.69,-1.53,30.41
58737,0.01,-0.40,0.98,-1.08,-2.24,-1.07,30.41
58747,0.01,-0.39,0.96,-2.08,-0.20,0.06,30.46
58757,0.03,-0.38,0.96,-3.28,0.73,-0.11,30.51
58767,0.03,-0.38,0.98,-4.99,1.63,-0.24,30.46
58777,0.02,-0.37,0.97,-6.11,2.34,0.84,30.37
58787,0.03,-0.39,1.00,-6.35,2.79,0.95,30.46
58797,0.04,-0.41,1.00,-5.66,2.37,-0.67,30.37
58807,0.02,-0.41,1.02,-5.05,0.40,-2.70,30.46
58817,0.01,-0.39,0.99,-3.66,-1.69,-3.02,30.41
58827,0.03,-0.38,0.98,-3.05,-1.24,-1.51,30.41
58837,0.03,-0.38,0.96,-4.75,0.90,-0.87,30.41
58847,0.02,-0.37,0.98,-6.15,2.82,-0.70,30.41
58857,0.00,-0.38,0.98,-7.13,2.35,-0.09,30.51
58867,0.01,-0.39,0.98,-5.62,1.27,1.37,30.41
58877,0.02,-0.40,1.00,-4.53,2.79,1.65,30.37
58887,0.01,-0.41,1.02,-4.26,3.07,1.40,30.37
58897,0.01,-0.40,1.02,-3.80,1.65,0.82,30.46
58907,0.01,-0.39,1.01,-4.70,0.02,-0.40,30.46
58917,0.02,-0.40,0.99,-5.07,0.14,-2.20,30.37
58927,0.02,-0.40,0.98,-5.66,-1.04,-1.85,30.37
58937,0.02,-0.40,0.98,-6.12,-0.02,-1.62,30.41
58947,0.01,-0.39,0.98,-6.44,1.30,-0.81,30.41
58957,0.01,-0.39,0.99,-7.56,2.63,0.31,30.41
58967,0.02,-0.41,0.99,-8.18,3.44,0.37,30.46
58977,0.02,-0.41,1.01,-6.87,3.77,0.21,30.51
58987,0.03,-0.42,1.02,-4.53,4.81,-0.96,30.46
58997,0.03,-0.42,1.03,-2.17,1.94,-3.56,30.46
59007,0.03,-0.43,1.00,-1.10,-1.62,-5.22,30.46
59017,0.00,-0.41,0.97,-1.54,-2.34,-4.37,30.55
59027,0.02,-0.39,0.97,-1.79,-1.44,-2.17,30.46
59037,0.03,-0.38,0.95,-2.81,2.14,0.00,30.46
59047,0.02,-0.37,0.95,-4.11,3.77,0.93,30.41
59057,0.01,-0.38,0.95,-4.55,2.95,1.65,30.51
59067,0.02,-0.39,0.95,-5.69,1.94,1.68,30.51
59077,0.01,-0.39,0.98,-6.82,0.99,1.62,30.41
59087,0.02,-0.40,0.99,-7.21,0.60,1.36,30.41
59097,0.01,-0.41,0.99,-6.79,0.21,1.85,30.46
59107,0.01,-0.41,1.01,-6.31,0.93,2.23,30.37
59117,0.01,-0.41,1.01,-6.37,1.13,1.01,30.46
59127,-0.01,-0.41,1.02,-5.92,-1.28,0.03,30.46
59137,-0.00,-0.41,1.01,-5.01,-3.88,-0.93,30.46
59147,-0.00,-0.41,1.01,-4.15,-5.16,-1.19,30.46
59157,0.02,-0.40,0.99,-4.24,-3.98,-1.19,30.51
59167,0.01,-0.40,0.99,-4.60,-2.85,0.27,30.41
59177,0.03,-0.39,0.96,-5.05,-1.10,2.15,30.32
59187,0.04,-0.39,0.97,-6.67,2.41,3.02,30.32
59197,0.05,-0.40,0.99,-7.56,3.60,2.64,30.41
59207,0.03,-0.41,1.01,-7.92,2.27,1.07,30.41
59217,0.04,-0.41,1.00,-6.31,-0.34,0.99,30.46
59227,0.04,-0.42,1.00,-5.07,0.14,1.16,30.46
