Millis,Acce_X,Acce_Y,Acce_Z,Gyro_X,Gyro_Y,Gyro_Z,Temp
54917,0.20,-0.54,1.14,-8.37,-8.00,-8.58,30.60
54927,0.21,-0.56,1.15,-3.54,-8.41,-15.05,30.51
54937,0.20,-0.55,1.14,2.69,-8.60,-19.82,30.51
54947,0.21,-0.54,1.11,7.59,-8.20,-24.53,30.51
54957,0.21,-0.52,1.07,9.51,-7.82,-30.61,30.55
54967,0.20,-0.51,1.05,8.78,-11.33,-37.47,30.55
54977,0.19,-0.51,1.02,6.21,-20.99,-46.08,30.46
54987,0.20,-0.51,1.01,1.53,-32.05,-56.82,30.46
54997,0.24,-0.50,0.98,-5.02,-41.89,-68.79,30.55
55007,0.26,-0.48,0.96,-12.58,-51.91,-80.78,30.46
55017,0.31,-0.50,0.87,-23.92,-54.14,-90.60,30.46
55027,0.34,-0.44,0.77,-36.84,-53.54,-95.16,30.46
55037,0.38,-0.40,0.71,-47.71,-37.98,-91.04,30.51
55047,0.42,-0.41,0.71,-51.51,-9.28,-85.10,30.51
55057,0.38,-0.48,0.81,-44.15,19.37,-76.08,30.51
55067,0.31,-0.52,0.91,-30.50,42.56,-67.59,30.51
55077,0.23,-0.57,1.04,-16.15,56.61,-61.89,30.51
55087,0.15,-0.61,1.12,-2.93,56.64,-59.19,30.55
55097,0.11,-0.61,1.16,5.05,48.31,-61.04,30.60
55107,0.13,-0.60,1.16,10.96,34.52,-66.76,30.65
55117,0.16,-0.57,1.13,14.31,22.84,-72.87,30.55
55127,0.19,-0.54,1.09,18.03,19.47,-76.53,30.55
55137,0.21,-0.50,1.03,20.18,22.27,-75.11,30.55
55147,0.22,-0.45,0.98,18.84,31.42,-71.71,30.55
55157,0.21,-0.43,0.97,14.58,39.47,-69.22,30.55
55167,0.19,-0.45,0.97,11.76,49.39,-66.87,30.55
55177,0.17,-0.45,0.97,11.44,53.74,-63.97,30.46
55187,0.17,-0.44,0.95,11.88,56.44,-62.56,30.51
55197,0.16,-0.44,0.92,12.49,59.76,-63.10,30.51
55207,0.15,-0.43,0.91,11.13,57.50,-63.85,30.51
55217,0.15,-0.42,0.87,8.31,53.28,-66.49,30.51
55227,0.15,-0.42,0.85,4.06,46.87,-71.30,30.41
55237,0.16,-0.40,0.83,-1.11,39.15,-76.53,30.60
55247,0.17,-0.42,0.82,-4.20,35.68,-80.37,30.60
55257,0.18,-0.43,0.82,-6.00,35.19,-80.60,30.55
55267,0.20,-0.44,0.80,-5.95,42.40,-78.66,30.55
55277,0.19,-0.43,0.78,-6.64,54.15,-75.89,30.46
55287,0.14,-0.44,0.81,-9.01,60.99,-76.76,30.37
55297,0.07,-0.45,0.89,-11.82,51.80,-84.46,30.46
55307,-0.01,-0.46,0.94,-16.23,27.18,-96.85,30.46
55317,-0.03,-0.48,0.98,-21.05,-9.71,-115.56,30.46
55327,-0.06,-0.47,0.98,-22.67,-44.85,-125.62,30.55
55337,-0.02,-0.46,0.93,-24.15,-61.86,-122.12,30.51
55347,0.09,-0.47,0.90,-20.50,-46.12,-108.72,30.41
55357,0.12,-0.48,0.91,-12.73,-15.63,-89.82,30.41
55367,0.17,-0.51,0.91,-6.24,23.65,-70.53,30.51
55377,0.19,-0.55,0.93,-3.57,51.95,-61.85,30.51
55387,0.16,-0.58,0.99,-6.32,64.40,-64.95,30.37
55397,0.11,-0.58,1.06,-9.07,63.89,-72.70,30.51
55407,0.04,-0.59,1.10,-9.71,54.95,-78.52,30.51
55417,-0.00,-0.58,1.12,-6.43,44.99,-81.31,30.46
55427,-0.02,-0.56,1.13,-1.50,40.40,-82.56,30.46
55437,-0.05,-0.55,1.14,2.96,35.16,-83.53,30.46
55447,-0.03,-0.54,1.10,7.22,28.99,-83.79,30.46
55457,0.00,-0.51,1.05,9.51,27.60,-84.32,30.46
55467,0.03,-0.49,1.01,10.64,29.40,-82.95,30.65
55477,0.02,-0.45,1.00,8.82,35.15,-79.69,30.46
55487,0.01,-0.42,0.96,6.61,43.74,-75.22,30.60
55497,-0.02,-0.40,0.97,3.37,49.31,-69.94,30.41
55507,-0.04,-0.39,0.98,-0.09,49.85,-66.63,30.51
55517,-0.06,-0.38,0.99,-2.06,46.66,-64.46,30.51
55527,-0.06,-0.39,0.99,-2.03,42.27,-62.53,30.51
55537,-0.06,-0.39,0.99,-0.89,40.73,-61.25,30.51
55547,-0.05,-0.38,0.97,-0.44,38.70,-60.03,30.51
55557,-0.05,-0.37,0.97,-1.48,35.68,-59.40,30.46
55567,-0.05,-0.37,0.94,-3.95,31.97,-59.53,30.46
55577,-0.04,-0.36,0.92,-6.15,28.46,-59.91,30.46
55587,-0.01,-0.36,0.90,-7.54,28.55,-59.39,30.55
55597,0.01,-0.34,0.86,-9.82,31.42,-57.33,30.55
55607,0.04,-0.38,0.86,-10.00,39.51,-54.73,30.46
55617,0.10,-0.40,0.79,-14.69,53.53,-52.00,30.46
55627,-0.15,-0.36,1.02,-14.18,29.97,-51.24,30.46
55637,-0.04,-0.36,0.88,-15.28,26.31,-52.02,30.51
55647,-0.04,-0.35,0.87,-18.67,16.56,-50.35,30.51
55657,-0.00,-0.37,0.86,-19.56,20.29,-48.82,30.41
55667,0.02,-0.38,0.87,-18.93,22.00,-46.99,30.41
55677,0.06,-0.40,0.82,-20.29,27.02,-44.67,30.51
55687,0.08,-0.43,0.85,-20.58,35.02,-44.35,30.55
55697,0.09,-0.45,0.86,-20.31,40.90,-43.60,30.51
55707,0.08,-0.47,0.88,-19.30,47.40,-45.71,30.55
55717,0.02,-0.48,0.89,-18.56,39.80,-46.92,30.55
55727,0.01,-0.46,0.92,-18.44,38.55,-49.39,30.46
55737,0.01,-0.47,0.92,-14.14,39.48,-50.69,30.46
55747,-0.01,-0.46,0.90,-15.98,30.87,-50.18,30.65
55757,0.03,-0.45,0.84,-17.97,32.84,-50.76,30.46
55767,0.05,-0.46,0.84,-19.56,43.13,-50.99,30.46
55777,0.01,-0.49,0.88,-18.37,41.88,-53.65,30.46
55787,0.02,-0.51,0.87,-18.21,32.18,-58.82,30.60
55797,0.04,-0.52,0.85,-19.97,24.24,-64.38,30.51
55807,0.04,-0.53,0.90,-17.94,16.31,-72.49,30.51
55817,0.07,-0.51,0.83,-20.17,8.38,-76.15,30.41
55827,0.09,-0.50,0.78,-23.85,14.61,-75.86,30.51
55837,0.09,-0.50,0.78,-26.37,26.55,-72.64,30.51
55847,0.05,-0.51,0.82,-27.39,33.98,-68.78,30.51
55857,0.04,-0.51,0.83,-26.26,40.47,-65.34,30.46
55867,0.04,-0.52,0.83,-24.76,41.47,-63.63,30.55
55877,0.04,-0.55,0.84,-24.47,40.24,-64.92,30.55
55887,0.04,-0.56,0.85,-25.95,38.35,-67.76,30.46
55897,0.03,-0.59,0.84,-27.68,34.81,-70.87,30.55
55907,0.06,-0.62,0.86,-26.66,31.59,-75.59,30.55
55917,0.11,-0.66,0.86,-22.50,28.75,-82.05,30.55
55927,0.14,-0.67,0.82,-17.07,27.73,-88.29,30.55
55937,0.15,-0.68,0.78,-15.88,27.60,-93.45,30.51
55947,0.18,-0.69,0.73,-18.12,31.18,-95.21,30.51
55957,0.22,-0.71,0.73,-18.76,41.48,-99.40,30.51
55967,0.20,-0.69,0.71,-19.19,49.79,-102.78,30.51
55977,0.16,-0.65,0.69,-20.20,56.50,-103.04,30.51
55987,0.12,-0.59,0.68,-24.29,61.47,-100.73,30.46
55997,0.08,-0.57,0.71,-30.23,66.66,-96.93,30.51
56007,0.06,-0.58,0.73,-38.38,69.77,-94.56,30.46
56017,0.03,-0.62,0.78,-42.11,73.30,-94.37,30.55
56027,0.03,-0.66,0.82,-39.30,74.96,-92.55,30.55
56037,0.02,-0.75,0.84,-33.68,73.30,-90.66,30.55
56047,0.03,-0.81,0.83,-30.75,70.26,-94.11,30.46
56057,-0.01,-0.83,0.85,-29.27,59.94,-103.92,30.55
56067,0.01,-0.82,0.85,-28.93,49.33,-113.83,30.46
56077,0.02,-0.80,0.87,-27.07,35.79,-123.89,30.41
56087,0.03,-0.79,0.83,-24.02,31.16,-128.98,30.60
56097,0.06,-0.75,0.79,-20.69,33.42,-130.27,30.60
56107,0.06,-0.68,0.73,-20.12,42.72,-126.99,30.51
56117,0.01,-0.63,0.72,-23.51,53.04,-117.73,30.55
56127,-0.01,-0.63,0.74,-28.55,58.17,-109.45,30.51
56137,0.01,-0.73,0.76,-34.73,59.80,-107.48,30.46
56147,-0.01,-0.80,0.80,-38.35,57.85,-107.53,30.55
56157,-0.01,-0.86,0.89,-33.94,53.82,-111.05,30.46
56167,-0.04,-0.87,0.97,-27.08,43.34,-115.94,30.55
56177,-0.08,-0.78,1.01,-23.79,30.67,-119.98,30.46
56187,-0.10,-0.73,1.03,-21.65,18.27,-120.21,30.55
56197,-0.06,-0.71,1.02,-17.31,14.41,-117.31,30.55
56207,-0.06,-0.68,0.98,-13.27,14.85,-112.99,30.41
56217,-0.05,-0.68,0.93,-11.01,20.38,-105.94,30.51
56227,-0.07,-0.69,0.88,-10.55,24.99,-98.43,30.51
56237,-0.14,-0.74,0.89,-10.49,17.10,-94.75,30.51
56247,-0.15,-0.77,0.89,-9.22,13.21,-94.46,30.51
56257,-0.18,-0.77,0.94,-7.31,4.46,-94.81,30.60
56267,-0.17,-0.77,0.97,-2.24,-3.18,-94.60,30.51
56277,-0.16,-0.76,1.05,4.15,-12.49,-94.52,30.55
56287,-0.12,-0.66,1.02,12.40,-20.17,-93.54,30.46
56297,-0.10,-0.59,0.97,18.82,-12.79,-84.93,30.46
56307,-0.07,-0.56,0.95,23.97,-8.18,-73.24,30.55
56317,-0.04,-0.50,0.92,28.20,1.69,-61.16,30.55
56327,-0.02,-0.52,0.90,26.11,12.43,-54.56,30.55
56337,-0.04,-0.50,0.93,25.69,18.56,-45.22,30.55
56347,-0.07,-0.53,0.96,24.47,19.76,-37.89,30.60
56357,-0.04,-0.54,0.97,23.82,12.64,-32.79,30.41
56367,0.02,-0.49,1.00,26.47,6.58,-30.76,30.41
56377,0.10,-0.42,0.95,28.49,6.21,-27.18,30.51
56387,0.19,-0.34,0.89,23.27,12.03,-22.63,30.51
56397,0.25,-0.31,0.85,14.93,24.27,-16.69,30.51
56407,0.24,-0.29,0.83,2.72,38.21,-11.36,30.60
56417,0.18,-0.31,0.87,-9.21,46.76,-6.53,30.65
56427,0.17,-0.36,0.88,-14.27,49.83,-4.41,30.55
56437,0.17,-0.43,0.90,-15.74,48.26,-4.61,30.55
56447,0.20,-0.49,0.89,-12.85,48.06,-1.92,30.55
56457,0.27,-0.49,0.89,-13.24,49.74,-2.49,30.46
56467,0.26,-0.48,0.91,-19.13,49.22,-6.44,30.46
56477,0.23,-0.47,0.95,-28.72,43.88,-9.56,30.46
56487,0.20,-0.47,0.94,-33.45,38.64,-11.74,30.51
56497,0.13,-0.47,0.93,-34.27,34.34,-14.49,30.60
56507,0.08,-0.45,0.93,-33.74,31.16,-13.37,30.51
56517,0.04,-0.41,0.91,-34.24,32.20,-7.47,30.51
56527,0.08,-0.43,0.96,-34.92,35.27,-0.32,30.51
56537,0.15,-0.47,0.99,-35.54,38.92,3.85,30.51
56547,0.19,-0.51,1.01,-36.72,50.87,6.99,30.46
56557,0.20,-0.54,1.03,-34.82,64.34,8.98,30.46
56567,0.18,-0.55,1.10,-33.53,76.17,10.12,30.46
56577,0.15,-0.56,1.15,-30.87,77.73,9.28,30.46
56587,0.08,-0.60,1.19,-27.85,74.11,4.79,30.55
56597,-0.02,-0.60,1.25,-20.98,60.85,-1.10,30.46
56607,-0.09,-0.58,1.24,-12.64,43.71,-6.23,30.55
56617,-0.12,-0.53,1.18,-6.37,23.07,-10.05,30.51
56627,-0.08,-0.45,1.08,-4.11,7.85,-9.65,30.51
56637,-0.01,-0.44,1.01,-2.66,-2.52,-9.68,30.51
56647,0.04,-0.38,0.93,-6.00,-6.69,-10.46,30.51
56657,0.04,-0.36,0.95,-10.49,-14.60,-13.66,30.51
56667,-0.01,-0.35,0.95,-12.93,-26.76,-21.98,30.60
56677,-0.04,-0.40,0.96,-11.80,-45.27,-32.26,30.46
56687,-0.04,-0.48,0.95,-2.05,-51.95,-30.15,30.46
56697,-0.11,-0.48,0.89,1.42,-30.99,-31.48,30.46
56707,-0.30,-0.62,0.98,5.48,-22.29,-24.35,30.46
56717,-0.33,-0.64,1.08,6.66,-5.16,-12.76,30.55
56727,-0.42,-0.68,1.21,12.98,-17.42,-4.52,30.46
56737,-0.45,-0.65,1.18,17.42,-30.56,4.00,30.55
56747,-0.39,-0.60,1.13,21.69,-42.18,13.63,30.46
56757,-0.28,-0.55,1.04,23.71,-42.64,22.46,30.60
56767,-0.15,-0.47,0.95,24.00,-30.78,34.06,30.51
56777,-0.06,-0.44,0.91,15.30,-13.16,41.50,30.51
56787,0.01,-0.43,0.88,6.05,-2.49,44.00,30.60
56797,0.07,-0.44,0.90,-0.47,-2.18,41.04,30.60
56807,0.12,-0.46,0.92,-2.15,-5.76,37.86,30.55
56817,0.18,-0.43,0.89,-2.70,-5.89,35.24,30.41
56827,0.22,-0.40,0.91,-5.42,-10.32,32.84,30.46
56837,0.31,-0.41,0.90,-9.04,-12.61,25.62,30.46
56847,0.37,-0.43,0.87,-10.11,-8.98,16.95,30.55
56857,0.36,-0.43,0.89,-7.88,-2.69,9.37,30.46
56867,0.31,-0.42,0.89,-5.80,7.74,4.06,30.55
56877,0.21,-0.43,0.94,-6.44,15.86,1.47,30.55
56887,0.07,-0.43,0.97,-8.27,17.27,0.03,30.51
56897,-0.03,-0.45,0.99,-9.92,12.35,-0.18,30.41
56907,-0.08,-0.47,1.01,-10.40,4.60,-0.21,30.51
56917,-0.09,-0.48,1.00,-12.26,1.74,1.59,30.60
56927,-0.07,-0.49,1.02,-13.95,2.60,5.53,30.51
56937,-0.04,-0.53,1.04,-12.75,5.22,8.55,30.46
56947,0.00,-0.58,1.06,-10.89,10.43,9.63,30.51
56957,0.02,-0.59,1.08,-6.78,15.39,10.52,30.55
56967,0.04,-0.60,1.07,-0.32,19.45,11.16,30.55
56977,0.03,-0.59,1.07,2.41,21.36,9.92,30.55
56987,-0.01,-0.56,1.05,3.68,22.52,8.58,30.46
56997,-0.05,-0.54,1.04,5.04,21.51,8.03,30.55
57007,-0.11,-0.53,1.04,4.40,18.14,7.83,30.46
57017,-0.17,-0.51,1.02,3.42,13.40,7.71,30.46
57027,-0.21,-0.50,1.01,3.92,5.68,9.22,30.51
57037,-0.23,-0.48,0.98,3.56,6.23,12.85,30.51
57047,-0.22,-0.45,0.96,1.60,6.50,18.11,30.51
57057,-0.18,-0.50,0.98,0.96,7.62,21.95,30.51
57067,-0.16,-0.51,0.97,-0.63,12.93,24.55,30.55
57077,-0.18,-0.52,1.01,0.23,16.47,27.15,30.51
57087,-0.18,-0.51,1.02,3.59,15.18,28.53,30.55
57097,-0.22,-0.49,1.03,3.40,9.18,27.95,30.46
57107,-0.24,-0.47,1.03,2.11,-1.98,28.00,30.46
57117,-0.25,-0.45,1.03,2.12,-18.50,27.36,30.46
57127,-0.26,-0.45,1.00,-0.18,-34.50,26.38,30.55
57137,-0.26,-0.43,0.95,-1.47,-44.38,28.85,30.46
57147,-0.26,-0.41,0.89,-2.95,-45.27,34.67,30.55
57157,-0.24,-0.40,0.84,-4.17,-38.93,43.30,30.51
57167,-0.22,-0.44,0.82,-5.34,-30.12,50.02,30.60
57177,-0.18,-0.50,0.83,-8.46,-19.66,55.68,30.60
57187,-0.14,-0.54,0.83,-13.69,-8.76,57.08,30.51
57197,-0.14,-0.56,0.88,-17.62,-3.69,57.21,30.46
57207,-0.15,-0.55,0.89,-19.50,-0.17,59.65,30.60
57217,-0.17,-0.52,0.89,-20.21,3.02,65.62,30.46
57227,-0.23,-0.52,0.91,-20.18,4.00,73.11,30.55
57237,-0.25,-0.53,0.91,-21.57,3.21,80.06,30.65
57247,-0.26,-0.56,0.92,-24.18,2.20,85.21,30.55
57257,-0.26,-0.58,0.91,-22.32,4.29,91.01,30.55
57267,-0.25,-0.64,0.92,-16.67,8.11,95.60,30.55
57277,-0.17,-0.73,0.95,-14.52,8.85,93.34,30.55
57287,-0.16,-0.76,0.98,-13.80,4.99,87.48,30.60
57297,-0.18,-0.76,1.07,-8.75,-6.69,82.05,30.51
57307,-0.20,-0.72,1.09,-3.11,-23.18,79.74,30.60
57317,-0.19,-0.67,1.04,-0.29,-40.46,80.53,30.60
57327,-0.18,-0.63,0.98,-0.63,-49.05,84.15,30.55
57337,-0.13,-0.62,0.93,-3.80,-50.84,87.66,30.41
57347,-0.12,-0.60,0.90,-7.91,-47.34,92.81,30.41
57357,-0.14,-0.60,0.90,-5.05,-39.95,99.40,30.46
57367,-0.09,-0.69,0.89,3.36,-26.50,108.05,30.55
57377,-0.05,-0.77,0.89,5.88,-17.11,108.23,30.55
57387,-0.08,-0.78,0.93,7.10,-15.39,102.81,30.46
57397,-0.15,-0.70,0.93,10.11,-25.36,100.46,30.55
57407,-0.18,-0.64,0.85,8.11,-35.95,100.46,30.55
57417,-0.19,-0.62,0.84,4.66,-45.54,100.34,30.46
57427,-0.19,-0.59,0.79,0.96,-50.12,103.56,30.51
57437,-0.18,-0.58,0.76,-1.97,-50.84,108.89,30.41
57447,-0.09,-0.65,0.75,-3.65,-50.06,110.58,30.51
57457,-0.04,-0.67,0.75,-4.53,-46.93,108.98,30.51
57467,-0.01,-0.70,0.76,-3.54,-39.73,108.56,30.60
57477,-0.01,-0.70,0.79,-1.53,-35.73,109.47,30.51
57487,-0.05,-0.68,0.80,-0.03,-36.11,110.02,30.51
57497,-0.08,-0.64,0.80,-0.32,-41.91,109.65,30.55
57507,-0.12,-0.61,0.77,-2.61,-49.85,110.24,30.46
57517,-0.12,-0.61,0.73,-6.53,-58.87,111.08,30.46
57527,-0.09,-0.63,0.74,-8.81,-63.27,110.85,30.55
57537,-0.04,-0.66,0.70,-10.67,-62.70,110.08,30.55
57547,0.01,-0.70,0.70,-9.82,-58.61,109.69,30.46
57557,0.01,-0.72,0.72,-8.82,-53.80,107.44,30.46
57567,0.03,-0.73,0.73,-6.79,-48.50,102.98,30.51
57577,-0.01,-0.73,0.77,-6.50,-48.44,98.78,30.51
57587,-0.07,-0.70,0.79,-6.99,-52.95,95.53,30.60
57597,-0.12,-0.69,0.79,-7.44,-62.05,92.44,30.51
57607,-0.14,-0.69,0.77,-8.52,-72.89,87.95,30.51
57617,-0.11,-0.69,0.76,-13.18,-87.82,79.54,30.51
57627,-0.13,-0.67,0.75,-19.98,-108.81,70.35,30.55
57637,-0.07,-0.67,0.77,-25.68,-137.18,59.59,30.55
57647,0.01,-0.69,0.73,-30.73,-163.89,46.82,30.46
57657,0.10,-0.68,0.69,-32.41,-180.24,37.98,30.46
57667,0.23,-0.69,0.59,-31.04,-184.99,32.73,30.46
57677,0.32,-0.67,0.55,-30.82,-174.00,29.73,30.46
57687,0.36,-0.64,0.51,-33.91,-150.98,34.82,30.51
57697,0.37,-0.61,0.53,-35.08,-120.50,47.05,30.51
57707,0.39,-0.61,0.57,-32.00,-82.31,62.40,30.51
57717,0.38,-0.63,0.62,-31.22,-50.64,73.73,30.51
57727,0.33,-0.66,0.69,-32.96,-29.13,74.40,30.51
57737,0.21,-0.68,0.78,-35.31,-23.27,72.23,30.51
57747,0.10,-0.69,0.84,-31.88,-28.34,70.53,30.46
57757,0.09,-0.70,0.86,-26.53,-29.16,69.83,30.46
57767,0.05,-0.70,0.87,-20.84,-27.40,68.69,30.46
57777,0.04,-0.69,0.87,-16.95,-23.82,67.97,30.55
57787,0.01,-0.69,0.89,-17.60,-23.69,71.19,30.46
57797,0.04,-0.71,0.90,-19.76,-20.08,75.18,30.55
57807,0.06,-0.74,0.95,-20.58,-13.28,79.28,30.51
57817,0.06,-0.77,1.00,-18.17,-5.01,81.82,30.51
57827,0.03,-0.79,1.05,-12.79,-3.39,81.56,30.41
57837,0.02,-0.80,1.08,-6.78,-9.56,78.02,30.51
57847,0.01,-0.79,1.07,-1.60,-22.34,73.08,30.46
57857,0.03,-0.77,1.05,1.27,-31.50,68.15,30.60
57867,0.03,-0.74,1.04,2.26,-37.37,64.29,30.51
57877,0.01,-0.71,1.03,4.43,-39.30,65.68,30.55
57887,0.04,-0.70,1.02,8.05,-39.40,68.26,30.46
57897,0.08,-0.71,0.99,11.89,-37.54,67.53,30.46
57907,0.06,-0.70,1.00,14.14,-38.21,66.53,30.55
57917,0.07,-0.69,1.00,18.50,-39.45,67.15,30.46
57927,0.12,-0.69,0.96,21.74,-38.12,65.91,30.46
57937,0.13,-0.67,0.96,23.48,-37.16,63.92,30.51
57947,0.10,-0.64,0.95,25.94,-35.59,64.69,30.60
57957,0.13,-0.64,0.93,28.06,-33.28,64.37,30.51
57967,0.12,-0.60,0.90,25.05,-37.22,60.43,30.41
57977,0.09,-0.58,0.92,23.04,-41.07,59.28,30.55
57987,0.08,-0.57,0.89,20.75,-43.80,60.24,30.51
57997,0.10,-0.59,0.89,22.41,-44.53,61.65,30.60
58007,0.11,-0.57,0.88,23.16,-40.17,63.28,30.46
58017,0.10,-0.54,0.87,22.23,-35.27,65.16,30.46
58027,0.07,-0.53,0.89,20.14,-36.81,65.89,30.46
58037,0.07,-0.52,0.88,17.40,-40.76,63.63,30.46
58047,0.06,-0.51,0.87,14.05,-44.98,62.47,30.55
58057,0.06,-0.50,0.86,13.63,-45.11,63.59,30.46
58067,0.10,-0.52,0.84,17.92,-42.40,66.17,30.55
58077,0.15,-0.53,0.82,21.44,-35.80,66.52,30.60
58087,0.18,-0.50,0.79,19.63,-26.64,66.41,30.51
58097,0.18,-0.49,0.82,15.22,-14.92,69.51,30.41
58107,0.16,-0.51,0.87,10.23,-2.31,72.58,30.51
58117,0.07,-0.55,0.96,7.08,1.76,72.23,30.51
58127,0.02,-0.54,0.99,9.73,-4.56,69.27,30.51
58137,0.02,-0.56,0.99,11.92,-14.82,65.05,30.51
58147,0.03,-0.56,0.99,14.95,-24.60,62.41,30.46
58157,0.06,-0.55,0.97,18.53,-27.07,61.10,30.46
58167,0.09,-0.54,0.95,17.82,-25.83,60.00,30.55
58177,0.06,-0.51,0.97,15.53,-26.89,59.02,30.46
58187,0.05,-0.51,0.98,16.50,-30.79,57.40,30.46
58197,0.05,-0.50,0.96,16.78,-36.34,55.28,30.46
58207,0.03,-0.49,0.94,16.26,-40.72,54.02,30.46
58217,0.06,-0.47,0.91,18.29,-39.31,54.87,30.41
58227,0.09,-0.44,0.85,19.24,-33.04,56.64,30.51
58237,0.09,-0.42,0.83,17.30,-24.44,60.46,30.51
58247,0.11,-0.43,0.82,13.37,-13.39,63.33,30.41
58257,0.09,-0.42,0.83,8.47,-6.72,65.24,30.41
58267,0.06,-0.42,0.86,3.83,-2.17,65.24,30.51
58277,0.04,-0.43,0.88,1.51,-3.02,64.37,30.55
58287,0.00,-0.44,0.89,-0.31,-5.50,64.76,30.55
58297,-0.00,-0.44,0.91,-0.37,-7.76,65.69,30.46
58307,-0.00,-0.47,0.91,-1.07,-10.99,63.36,30.46
58317,-0.02,-0.47,0.93,-1.94,-15.48,61.71,30.46
58327,-0.03,-0.45,0.91,-1.37,-19.16,62.15,30.46
58337,0.01,-0.46,0.91,-0.87,-21.39,62.41,30.46
58347,0.03,-0.46,0.90,-3.04,-22.08,61.28,30.41
58357,0.04,-0.45,0.91,-5.77,-23.73,58.98,30.41
58367,0.02,-0.45,0.92,-6.08,-28.96,56.09,30.51
58377,0.05,-0.45,0.91,-5.28,-31.91,51.98,30.41
58387,0.06,-0.45,0.90,-4.82,-33.48,49.22,30.51
58397,0.09,-0.43,0.87,-5.16,-33.48,47.21,30.51
58407,0.09,-0.43,0.88,-9.28,-33.83,44.12,30.37
58417,0.09,-0.39,0.85,-14.72,-32.73,45.21,30.46
58427,0.10,-0.40,0.85,-19.13,-29.56,46.55,30.55
58437,0.12,-0.45,0.91,-20.73,-22.17,47.27,30.55
58447,0.12,-0.46,0.90,-21.21,-15.85,46.90,30.46
58457,0.10,-0.49,0.96,-20.34,-11.01,46.27,30.46
58467,0.08,-0.50,0.99,-18.18,-9.71,45.27,30.51
58477,0.09,-0.53,1.01,-17.56,-10.75,40.93,30.60
58487,0.08,-0.52,1.03,-16.40,-13.11,37.86,30.41
58497,0.11,-0.53,1.03,-15.15,-13.24,34.58,30.51
58507,0.13,-0.53,1.01,-14.67,-11.10,31.36,30.41
58517,0.14,-0.53,1.02,-14.29,-8.66,28.44,30.51
58527,0.14,-0.55,1.01,-13.05,-4.41,25.92,30.51
58537,0.15,-0.56,1.02,-9.57,0.11,24.82,30.46
58547,0.17,-0.57,1.01,-6.31,4.99,21.63,30.55
58557,0.18,-0.56,1.00,-4.29,7.45,16.09,30.55
58567,0.14,-0.55,0.99,-3.48,7.79,12.37,30.46
58577,0.09,-0.53,0.98,-2.73,5.95,9.44,30.55
58587,0.04,-0.50,0.97,-2.40,2.03,6.26,30.46
58597,0.00,-0.46,0.94,-4.05,-0.40,6.96,30.41
58607,-0.01,-0.46,0.94,-5.22,-0.95,10.73,30.51
58617,0.01,-0.48,0.95,-4.34,0.44,11.95,30.41
58627,0.02,-0.46,0.95,-4.17,2.58,14.02,30.41
58637,0.05,-0.46,0.96,-3.71,5.13,16.84,30.51
58647,0.10,-0.46,0.96,-3.34,8.15,17.04,30.51
58657,0.15,-0.46,0.97,-2.23,11.47,16.03,30.51
58667,0.18,-0.47,0.96,-3.40,14.78,14.40,30.46
58677,0.19,-0.50,0.96,-3.47,16.46,10.00,30.46
58687,0.17,-0.51,0.98,-1.69,15.60,4.26,30.46
58697,0.10,-0.51,0.99,1.11,13.16,1.57,30.46
58707,0.05,-0.49,1.00,5.62,12.14,2.05,30.46
58717,0.05,-0.47,0.99,7.91,11.71,2.67,30.46
58727,0.06,-0.44,0.96,6.26,9.82,2.11,30.51
58737,0.07,-0.42,0.94,2.03,8.05,1.42,30.51
58747,0.09,-0.42,0.94,-2.23,7.02,0.24,30.60
58757,0.10,-0.45,0.94,-5.19,8.00,-1.47,30.51
58767,0.09,-0.46,0.96,-5.63,8.72,-2.26,30.51
58777,0.08,-0.48,0.98,-3.24,11.65,-2.18,30.51
58787,0.10,-0.48,0.98,-1.19,12.50,-3.02,30.51
58797,0.09,-0.48,0.98,-0.60,13.37,-5.19,30.46
58807,0.09,-0.47,0.99,0.35,13.56,-6.52,30.55
58817,0.09,-0.48,0.99,1.40,14.64,-7.60,30.55
58827,0.09,-0.48,0.99,2.18,15.71,-10.26,30.46
58837,0.06,-0.47,0.99,3.40,15.08,-12.15,30.46
58847,0.05,-0.46,0.99,3.97,14.53,-13.16,30.55
58857,0.02,-0.45,0.99,2.17,12.81,-14.09,30.41
58867,-0.03,-0.44,0.99,-0.26,7.88,-15.28,30.51
58877,-0.06,-0.44,1.01,-1.76,2.09,-15.16,30.51
58887,-0.06,-0.44,0.98,-1.91,-1.28,-14.11,30.51
58897,-0.04,-0.46,0.98,-1.25,-1.57,-13.45,30.41
58907,-0.04,-0.46,0.99,-0.09,-0.09,-12.35,30.41
58917,-0.05,-0.44,0.97,-0.03,0.15,-10.43,30.55
58927,-0.03,-0.44,0.96,-0.58,1.80,-8.60,30.46
58937,-0.02,-0.42,0.97,-1.89,3.63,-7.73,30.55
58947,-0.00,-0.44,0.96,-2.98,5.74,-6.81,30.46
58957,-0.01,-0.44,0.97,-4.15,6.53,-7.54,30.55
58967,-0.04,-0.46,0.99,-3.68,4.99,-8.72,30.55
58977,-0.07,-0.45,0.99,-1.68,3.40,-7.66,30.51
58987,-0.07,-0.45,0.98,-0.96,3.88,-6.14,30.41
58997,-0.07,-0.45,0.97,-1.62,3.16,-5.27,30.41
59007,-0.07,-0.44,0.98,-2.55,2.00,-4.78,30.51
59017,-0.06,-0.44,0.96,-2.55,2.47,-4.00,30.55
59027,-0.03,-0.45,0.96,-1.86,4.06,-2.92,30.51
59037,-0.02,-0.46,0.97,-0.99,6.35,-3.11,30.46
59047,-0.02,-0.46,0.96,-0.40,7.10,-3.57,30.55
59057,-0.03,-0.46,0.96,-0.66,7.11,-4.12,30.55
59067,-0.03,-0.46,0.96,-1.07,5.92,-5.59,30.55
59077,-0.03,-0.46,0.95,-1.25,3.54,-6.96,30.55
59087,-0.04,-0.45,0.94,-1.94,2.63,-7.92,30.55
59097,-0.06,-0.43,0.93,-2.46,3.59,-6.52,30.41
59107,-0.05,-0.42,0.92,-3.13,6.43,-4.17,30.51
59117,-0.06,-0.45,0.94,-4.89,7.37,-4.02,30.51
59127,-0.05,-0.45,0.93,-6.56,8.95,-2.63,30.51
59137,-0.05,-0.47,0.95,-6.79,10.58,-1.60,30.41
59147,-0.04,-0.48,0.95,-6.35,12.70,-1.73,30.46
59157,-0.06,-0.48,0.97,-5.74,13.31,-2.82,30.46
59167,-0.08,-0.48,0.98,-4.92,11.91,-2.64,30.46
59177,-0.09,-0.47,0.98,-4.93,9.62,-1.83,30.46
59187,-0.08,-0.50,1.00,-4.61,6.63,-2.78,30.46
59197,-0.06,-0.50,1.01,-3.79,4.89,-4.14,30.46
59207,-0.05,-0.49,1.02,-1.68,3.16,-6.03,30.46
59217,-0.03,-0.49,1.02,0.84,2.56,-7.48,30.41
59227,-0.02,-0.49,1.00,2.17,2.64,-8.63,30.51
59237,-0.00,-0.48,1.01,3.16,0.99,-10.55,30.41
59247,0.01,-0.47,0.99,4.12,-1.56,-13.34,30.41
59257,0.02,-0.46,0.96,4.58,-2.47,-16.03,30.41
59267,0.02,-0.43,0.95,5.44,-2.20,-17.77,30.60
59277,0.02,-0.43,0.93,5.24,0.35,-18.75,30.55
59287,-0.00,-0.41,0.91,5.05,3.28,-18.93,30.46
59297,-0.02,-0.41,0.89,4.85,5.77,-17.63,30.46
59307,-0.05,-0.40,0.91,3.22,5.77,-15.89,30.46
59317,-0.05,-0.40,0.91,0.79,5.92,-14.46,30.37
59327,-0.07,-0.41,0.92,-1.86,5.01,-14.15,30.46
59337,-0.09,-0.40,0.92,-2.75,3.05,-11.42,30.46
59347,-0.10,-0.39,0.94,-4.14,2.02,-9.02,30.51
59357,-0.09,-0.38,0.95,-5.16,1.25,-6.76,30.51
59367,-0.08,-0.40,0.95,-6.92,0.82,-4.17,30.51
59377,-0.06,-0.41,0.96,-8.76,2.53,-2.67,30.51
59387,-0.06,-0.42,0.97,-9.54,3.86,-1.30,30.60
59397,-0.04,-0.45,1.01,-9.22,4.49,-1.05,30.51
59407,-0.05,-0.46,1.02,-6.47,2.55,-1.13,30.46
59417,-0.05,-0.47,1.02,-4.63,0.67,-2.18,30.55
59427,-0.05,-0.46,1.03,-2.75,-1.97,-2.29,30.46
59437,-0.05,-0.44,1.02,-2.21,-4.14,-1.85,30.46
59447,-0.03,-0.44,1.00,-2.93,-5.45,-2.23,30.46
59457,-0.00,-0.43,0.99,-4.56,-6.78,-3.13,30.55
59467,-0.00,-0.43,0.98,-5.73,-6.64,-3.54,30.41
59477,-0.00,-0.43,0.98,-5.68,-5.37,-3.31,30.51
59487,0.01,-0.45,0.98,-5.62,-3.13,-1.65,30.41
59497,0.00,-0.45,1.00,-4.64,-0.63,-1.85,30.41
59507,-0.01,-0.46,1.00,-3.36,1.66,-2.20,30.51
59517,-0.01,-0.46,0.98,-2.53,2.73,-2.76,30.60
59527,-0.01,-0.45,0.98,-2.82,2.53,-2.17,30.46
59537,0.00,-0.44,0.98,-4.02,4.03,-1.56,30.46
59547,-0.01,-0.46,1.01,-5.01,4.29,-2.56,30.46
59557,-0.02,-0.48,1.00,-4.55,2.14,-4.29,30.46
59567,-0.03,-0.48,1.01,-2.89,-0.98,-6.17,30.46
59577,-0.04,-0.47,1.01,-1.13,-4.76,-8.20,30.55
59587,-0.04,-0.47,0.99,-0.14,-5.47,-9.36,30.51
59597,-0.05,-0.44,0.98,-0.17,-6.26,-8.29,30.60
59607,-0.04,-0.43,0.97,-0.79,-4.78,-7.10,30.41
59617,-0.03,-0.44,0.97,-1.42,-2.78,-6.52,30.51
59627,-0.04,-0.45,0.97,-1.11,-2.76,-6.35,30.55
59637,-0.05,-0.45,0.96,-0.02,-3.24,-6.44,30.51
59647,-0.05,-0.44,0.95,1.07,-4.23,-6.47,30.55
59657,-0.04,-0.43,0.92,0.31,-3.80,-5.80,30.55
59667,-0.05,-0.43,0.91,-1.16,-2.08,-4.18,30.46
59677,-0.03,-0.44,0.93,-2.49,0.31,-3.44,30.46
59687,-0.03,-0.45,0.95,-3.95,1.94,-4.43,30.46
59697,-0.05,-0.45,0.96,-4.55,0.66,-5.11,30.46
59707,-0.04,-0.45,0.98,-3.30,-1.28,-5.48,30.41
59717,-0.06,-0.45,0.98,-2.60,-4.21,-4.47,30.41
59727,-0.03,-0.44,0.95,-3.71,-2.09,-2.95,30.51
59737,-0.02,-0.45,1.00,-2.05,0.61,-4.99,30.51
59747,-0.01,-0.44,0.98,-1.69,-1.25,-6.92,30.41
59757,-0.02,-0.43,0.97,-1.34,-7.19,-8.38,30.46
59767,-0.01,-0.42,0.94,-1.28,-4.60,-8.23,30.46
59777,-0.02,-0.42,0.93,-2.89,1.07,-4.50,30.55
59787,-0.02,-0.43,0.96,-3.59,8.23,-1.92,30.55
59797,-0.06,-0.43,0.99,-5.47,4.58,-0.85,30.55
59807,-0.09,-0.42,1.01,-3.69,2.72,-2.27,30.55
59817,-0.02,-0.41,0.94,-6.31,-0.03,-1.92,30.46
59827,-0.02,-0.42,0.99,-6.20,-1.27,-1.53,30.51
59837,0.00,-0.43,0.97,-7.66,-0.21,-1.34,30.51
59847,-0.00,-0.44,0.98,-6.17,-0.32,-1.77,30.51
59857,0.00,-0.44,0.97,-3.82,-0.73,-3.05,30.51
59867,0.00,-0.43,0.96,-3.30,-1.88,-3.25,30.51
59877,-0.01,-0.41,0.94,-3.71,0.08,-2.06,30.41
59887,-0.02,-0.40,0.92,-6.14,2.14,0.03,30.55
59897,-0.03,-0.42,0.93,-7.60,1.94,1.33,30.46
