Millis,Acce_X,Acce_Y,Acce_Z,Gyro_X,Gyro_Y,Gyro_Z,Temp
65747,-0.03,-0.30,0.95,-18.85,-0.56,14.56,30.46
65757,0.00,-0.30,0.93,-20.85,2.95,15.66,30.27
65767,0.05,-0.30,0.95,-24.23,5.51,15.21,30.46
65777,0.08,-0.32,1.00,-26.70,5.88,14.08,30.37
65787,0.11,-0.34,1.03,-28.49,4.15,11.25,30.51
65797,0.14,-0.38,1.09,-28.70,2.38,7.22,30.41
65807,0.15,-0.41,1.13,-26.90,0.85,3.05,30.41
65817,0.20,-0.43,1.13,-23.07,1.19,-0.67,30.41
65827,0.24,-0.46,1.16,-18.24,1.22,-5.47,30.46
65837,0.25,-0.48,1.16,-13.42,1.31,-11.19,30.41
65847,0.26,-0.47,1.13,-9.47,1.97,-14.35,30.46
65857,0.27,-0.46,1.12,-7.15,6.35,-16.63,30.46
65867,0.29,-0.46,1.10,-5.86,12.05,-17.69,30.37
65877,0.30,-0.45,1.09,-5.40,16.66,-19.85,30.46
65887,0.30,-0.46,1.09,-4.93,18.44,-22.26,30.37
65897,0.31,-0.47,1.10,-4.76,17.36,-25.39,30.46
65907,0.33,-0.47,1.10,-3.92,16.37,-30.35,30.46
65917,0.33,-0.49,1.11,-2.72,15.25,-35.45,30.41
65927,0.32,-0.52,1.13,-0.61,13.24,-40.44,30.51
65937,0.29,-0.53,1.12,2.24,9.91,-45.91,30.41
65947,0.28,-0.53,1.12,3.65,7.40,-50.76,30.41
65957,0.26,-0.52,1.11,4.53,7.28,-54.44,30.46
65967,0.24,-0.51,1.09,5.01,10.40,-56.95,30.41
65977,0.22,-0.51,1.11,4.93,14.46,-58.99,30.37
65987,0.20,-0.50,1.11,5.36,18.98,-61.15,30.46
65997,0.17,-0.49,1.12,6.85,21.37,-63.63,30.46
66007,0.14,-0.50,1.12,8.55,24.05,-65.80,30.37
66017,0.11,-0.51,1.15,11.10,23.73,-67.92,30.46
66027,0.10,-0.49,1.16,13.54,23.63,-69.73,30.37
66037,0.07,-0.50,1.15,14.44,22.44,-71.59,30.46
66047,0.04,-0.49,1.15,15.01,21.18,-71.66,30.41
66057,0.04,-0.47,1.12,15.50,21.85,-71.21,30.41
66067,0.05,-0.48,1.10,16.34,23.04,-70.02,30.41
66077,0.07,-0.41,1.04,17.69,28.15,-68.43,30.41
66087,0.09,-0.35,0.99,13.33,33.31,-70.17,30.46
66097,0.08,-0.36,0.97,1.85,35.60,-73.15,30.41
66107,0.05,-0.38,0.99,-10.93,39.77,-73.71,30.37
66117,0.03,-0.38,1.06,-20.52,43.85,-72.05,30.46
66127,0.05,-0.41,1.10,-24.63,54.89,-69.59,30.46
66137,0.03,-0.52,1.15,-26.23,70.90,-65.07,30.37
66147,-0.01,-0.53,1.26,-17.86,74.66,-58.89,30.37
66157,0.00,-0.60,1.27,-7.98,77.25,-57.71,30.46
66167,-0.03,-0.62,1.18,-1.66,69.86,-57.48,30.46
66177,-0.01,-0.59,1.07,-0.93,58.69,-57.30,30.41
66187,0.01,-0.55,0.99,-2.81,49.30,-57.80,30.41
66197,0.04,-0.52,0.85,-2.18,43.94,-56.29,30.41
66207,0.09,-0.53,0.80,4.00,41.94,-55.85,30.41
66217,0.14,-0.58,0.79,12.53,43.08,-59.37,30.46
66227,0.16,-0.56,0.77,20.03,43.19,-66.08,30.32
66237,0.17,-0.53,0.75,21.71,41.28,-75.08,30.46
66247,0.12,-0.52,0.75,18.56,32.92,-84.50,30.37
66257,0.05,-0.49,0.74,15.47,22.75,-90.35,30.46
66267,0.03,-0.46,0.71,13.77,18.31,-91.56,30.37
66277,0.02,-0.45,0.71,13.33,16.70,-90.95,30.37
66287,0.03,-0.43,0.71,12.32,20.50,-90.75,30.46
66297,0.02,-0.43,0.74,11.50,23.60,-91.28,30.37
66307,0.03,-0.45,0.75,12.92,24.73,-92.34,30.41
66317,0.05,-0.46,0.75,15.51,30.20,-94.18,30.32
66327,0.07,-0.44,0.72,18.26,37.63,-94.79,30.41
66337,0.05,-0.43,0.73,16.64,43.80,-95.34,30.41
66347,0.00,-0.44,0.76,11.86,44.38,-97.80,30.46
66357,-0.04,-0.48,0.81,8.64,42.49,-100.81,30.32
66367,-0.06,-0.50,0.89,9.86,38.46,-103.24,30.46
66377,-0.06,-0.51,0.94,13.85,32.31,-107.76,30.46
66387,-0.08,-0.53,0.98,15.21,24.11,-115.39,30.37
66397,-0.13,-0.53,1.00,15.69,13.28,-119.97,30.46
66407,-0.12,-0.51,0.96,17.59,11.02,-119.82,30.46
66417,-0.08,-0.51,0.90,16.70,21.97,-116.63,30.37
66427,-0.09,-0.51,0.89,14.98,35.92,-111.85,30.32
66437,-0.07,-0.52,0.86,9.51,54.08,-108.29,30.41
66447,-0.08,-0.52,0.93,9.02,52.09,-106.78,30.41
66457,-0.06,-0.54,0.92,8.49,48.69,-111.04,30.41
66467,-0.06,-0.58,0.90,6.79,39.48,-116.40,30.41
66477,-0.04,-0.60,0.93,0.76,31.51,-122.60,30.46
66487,-0.04,-0.62,0.92,-0.73,31.18,-127.22,30.51
66497,-0.05,-0.63,0.93,-1.47,40.63,-125.57,30.46
66507,-0.07,-0.62,0.92,2.15,55.15,-120.89,30.46
66517,-0.09,-0.61,0.92,3.88,65.42,-115.63,30.46
66527,-0.12,-0.60,0.86,-2.18,71.25,-111.86,30.46
66537,-0.12,-0.58,0.83,-14.44,68.09,-111.25,30.37
66547,-0.13,-0.57,0.80,-29.68,56.87,-113.54,30.37
66557,-0.14,-0.57,0.76,-45.94,44.31,-113.56,30.41
66567,-0.19,-0.56,0.77,-54.06,30.03,-109.83,30.51
66577,-0.15,-0.59,0.81,-48.52,33.36,-105.74,30.51
66587,-0.10,-0.63,0.79,-38.03,35.54,-99.54,30.41
66597,-0.06,-0.67,0.83,-17.11,47.34,-94.32,30.32
66607,0.03,-0.72,0.81,2.02,66.00,-98.40,30.37
66617,-0.03,-0.74,0.88,11.56,70.09,-103.59,30.37
66627,-0.04,-0.75,0.91,14.53,77.25,-111.01,30.46
66637,-0.10,-0.72,0.91,14.58,78.95,-115.16,30.37
66647,-0.16,-0.68,0.89,15.18,78.32,-117.62,30.46
66657,-0.21,-0.66,0.88,15.39,73.25,-119.07,30.37
66667,-0.24,-0.63,0.86,13.94,62.27,-121.95,30.37
66677,-0.23,-0.61,0.83,11.45,49.74,-126.27,30.37
66687,-0.23,-0.60,0.80,6.50,37.18,-131.98,30.41
66697,-0.22,-0.59,0.79,2.38,27.36,-136.35,30.41
66707,-0.21,-0.56,0.77,-0.96,22.32,-137.30,30.41
66717,-0.18,-0.53,0.72,-5.56,25.01,-135.39,30.41
66727,-0.17,-0.54,0.69,-10.55,34.20,-130.79,30.51
66737,-0.20,-0.56,0.73,-14.40,43.92,-125.07,30.37
66747,-0.20,-0.56,0.73,-16.82,53.94,-118.87,30.46
66757,-0.20,-0.58,0.73,-17.94,64.61,-113.27,30.46
66767,-0.22,-0.60,0.75,-17.80,71.56,-108.70,30.46
66777,-0.26,-0.60,0.78,-17.77,73.21,-107.76,30.37
66787,-0.28,-0.62,0.81,-19.45,60.73,-111.04,30.37
66797,-0.25,-0.62,0.82,-21.16,39.33,-118.12,30.46
66807,-0.21,-0.65,0.80,-24.15,24.34,-127.98,30.37
66817,-0.16,-0.69,0.79,-28.58,9.65,-135.80,30.41
66827,-0.13,-0.70,0.78,-29.22,8.29,-138.00,30.41
66837,-0.11,-0.71,0.78,-26.95,16.50,-134.41,30.41
66847,-0.09,-0.72,0.75,-22.46,33.02,-126.98,30.51
66857,-0.08,-0.73,0.75,-19.11,46.24,-120.76,30.32
66867,-0.05,-0.74,0.74,-17.59,52.17,-116.95,30.37
66877,-0.02,-0.76,0.75,-17.53,57.86,-118.84,30.41
66887,-0.02,-0.78,0.77,-16.93,58.58,-122.99,30.46
66897,-0.03,-0.78,0.80,-15.11,51.16,-128.67,30.46
66907,0.00,-0.79,0.78,-14.92,41.40,-134.09,30.46
66917,0.02,-0.79,0.76,-17.73,30.69,-141.21,30.46
66927,0.05,-0.80,0.78,-20.00,25.73,-146.92,30.37
66937,0.05,-0.81,0.79,-20.44,29.45,-149.05,30.46
66947,0.04,-0.80,0.79,-15.95,40.00,-146.84,30.37
66957,0.07,-0.80,0.78,-9.37,55.92,-141.25,30.32
66967,0.09,-0.80,0.73,-6.18,69.50,-137.88,30.41
66977,0.07,-0.80,0.76,-4.35,75.83,-139.65,30.41
66987,0.07,-0.82,0.80,-1.98,70.46,-145.11,30.41
66997,0.05,-0.80,0.79,0.50,59.28,-154.20,30.37
67007,0.02,-0.77,0.78,1.48,46.08,-162.17,30.32
67017,-0.01,-0.75,0.77,0.49,36.06,-166.14,30.46
67027,-0.06,-0.71,0.74,-1.22,32.24,-166.38,30.46
67037,-0.09,-0.69,0.72,-3.86,35.69,-160.63,30.46
67047,-0.13,-0.67,0.71,-5.97,39.97,-151.69,30.46
67057,-0.14,-0.64,0.71,-8.38,42.78,-142.44,30.46
67067,-0.15,-0.62,0.71,-10.98,45.54,-131.91,30.46
67077,-0.18,-0.59,0.73,-15.05,48.79,-119.18,30.37
67087,-0.22,-0.55,0.77,-20.78,57.27,-103.47,30.41
67097,-0.28,-0.53,0.83,-19.97,62.95,-83.98,30.41
67107,-0.33,-0.52,0.88,-13.74,70.81,-62.34,30.32
67117,-0.34,-0.48,0.85,-8.76,76.99,-46.06,30.41
67127,-0.29,-0.49,0.83,-5.83,79.16,-40.85,30.46
67137,-0.24,-0.51,0.81,-7.19,74.52,-46.82,30.41
67147,-0.25,-0.53,0.87,-14.63,54.55,-61.15,30.41
67157,-0.30,-0.57,0.92,-19.45,26.34,-77.34,30.37
67167,-0.30,-0.51,0.95,-21.73,2.24,-84.78,30.37
67177,-0.28,-0.49,0.95,-22.95,-11.42,-79.91,30.37
67187,-0.22,-0.50,0.96,-19.47,-12.32,-64.55,30.46
67197,-0.13,-0.55,0.95,-11.08,-2.35,-44.73,30.37
67207,-0.03,-0.60,0.95,-6.14,16.35,-23.34,30.37
67217,0.02,-0.63,1.00,-2.49,30.05,-6.32,30.37
67227,0.07,-0.67,1.06,2.11,35.86,-2.60,30.41
67237,0.18,-0.75,1.07,0.32,29.86,-19.24,30.41
67247,0.26,-0.80,1.09,-10.06,14.44,-46.52,30.41
67257,0.24,-0.82,1.18,-18.63,-8.21,-73.69,30.41
67267,0.23,-0.83,1.22,-20.72,-31.88,-93.56,30.51
67277,0.25,-0.82,1.16,-17.04,-41.53,-105.16,30.41
67287,0.27,-0.79,1.11,-7.79,-33.65,-109.76,30.46
67297,0.25,-0.74,1.09,2.98,-14.31,-107.48,30.37
67307,0.20,-0.71,1.07,12.61,9.27,-99.76,30.46
67317,0.17,-0.67,1.04,21.57,32.23,-84.02,30.46
67327,0.16,-0.66,1.06,27.47,50.12,-68.64,30.46
67337,0.19,-0.66,1.08,28.61,55.53,-64.02,30.55
67347,0.22,-0.68,1.04,24.53,54.29,-73.13,30.37
67357,0.24,-0.67,1.00,20.15,48.27,-92.69,30.41
67367,0.21,-0.66,1.01,15.07,44.08,-102.37,30.41
67377,0.12,-0.66,1.04,12.61,37.59,-112.11,30.51
67387,0.06,-0.61,1.03,13.57,47.30,-108.20,30.41
67397,-0.03,-0.56,1.04,20.66,68.82,-98.15,30.51
67407,-0.06,-0.55,1.02,35.76,89.97,-86.81,30.41
67417,-0.17,-0.52,1.02,40.15,94.85,-84.03,30.41
67427,-0.27,-0.50,1.03,29.98,76.18,-90.52,30.37
67437,-0.37,-0.45,0.97,16.14,64.49,-98.12,30.55
67447,-0.54,-0.35,1.01,-8.87,29.27,-103.80,30.46
67457,-0.70,-0.33,0.93,-28.00,11.19,-97.66,30.46
67467,-0.76,-0.29,0.92,-30.53,-1.85,-82.53,30.37
67477,-0.69,-0.30,0.90,-10.31,11.98,-45.22,30.37
67487,-0.67,-0.20,1.00,-6.85,33.28,-2.66,30.46
67497,-0.61,-0.31,0.99,3.80,35.57,22.78,30.46
67507,-0.36,-0.40,0.89,3.37,37.48,23.30,30.32
67517,-0.16,-0.48,0.95,0.31,23.07,15.11,30.51
67527,-0.01,-0.50,0.89,1.40,7.95,6.41,30.51
67537,0.04,-0.49,0.98,2.63,-2.85,0.23,30.41
67547,0.13,-0.42,0.94,4.09,-1.33,-1.22,30.51
67557,0.13,-0.38,0.90,5.30,-3.56,0.23,30.37
67567,0.09,-0.35,0.91,1.66,-7.15,3.63,30.51
67577,0.06,-0.34,0.90,-2.49,-10.95,5.79,30.51
67587,0.02,-0.38,0.94,-3.07,-18.72,6.73,30.46
67597,0.01,-0.41,1.01,-7.30,-24.49,2.98,30.46
67607,0.03,-0.43,1.03,-7.91,-22.89,1.37,30.46
67617,0.07,-0.45,1.04,-7.62,-11.88,2.17,30.55
67627,0.12,-0.43,1.03,-4.44,-1.07,3.82,30.46
67637,0.14,-0.45,1.02,-1.19,3.07,4.87,30.46
67647,0.14,-0.47,0.93,7.54,1.22,8.27,30.46
67657,0.15,-0.45,0.98,-2.44,0.87,5.16,30.41
67667,0.15,-0.42,0.99,-6.35,-2.17,3.05,30.51
67677,0.12,-0.41,0.96,-6.34,-10.40,2.90,30.41
67687,0.13,-0.46,0.92,-4.60,-11.30,2.41,30.41
67697,0.13,-0.44,0.98,-13.21,-11.24,1.40,30.41
67707,0.16,-0.46,0.94,-9.54,-6.84,1.34,30.41
67717,0.13,-0.40,1.04,-11.34,1.50,0.58,30.51
67727,0.09,-0.44,0.98,-6.95,8.82,2.93,30.37
67737,0.07,-0.45,1.00,-4.87,9.34,2.90,30.46
67747,0.05,-0.42,1.02,-6.90,4.78,3.11,30.55
67757,0.05,-0.46,0.99,-5.95,1.56,2.78,30.55
67767,0.05,-0.46,0.99,-6.00,-0.47,2.98,30.46
67777,0.08,-0.47,1.01,-5.59,-2.53,2.15,30.46
67787,0.09,-0.47,1.01,-6.08,-5.39,2.58,30.37
67797,0.13,-0.47,0.98,-5.77,-6.03,2.53,30.41
67807,0.17,-0.46,0.93,-4.87,-0.99,1.74,30.32
67817,0.16,-0.46,0.90,-4.27,4.78,0.32,30.41
67827,0.12,-0.45,0.92,-5.62,7.65,-1.10,30.41
67837,0.09,-0.45,0.95,-7.83,6.67,-0.53,30.51
67847,0.04,-0.47,0.97,-9.05,4.64,-0.14,30.51
67857,0.02,-0.48,1.00,-9.36,3.48,1.40,30.46
67867,-0.04,-0.49,1.05,-6.21,-2.73,5.98,30.37
67877,-0.05,-0.47,1.04,-5.57,-0.56,11.98,30.46
67887,-0.04,-0.47,1.02,-1.18,5.66,24.58,30.46
67897,0.02,-0.50,1.05,-0.49,11.07,30.08,30.46
67907,0.09,-0.57,1.02,8.05,18.03,33.05,30.37
67917,0.15,-0.60,1.02,14.27,28.78,32.73,30.37
67927,0.18,-0.59,1.04,14.32,42.85,28.87,30.55
67937,0.09,-0.56,1.10,11.30,41.18,20.84,30.37
67947,0.04,-0.53,1.11,7.91,33.01,14.92,30.41
67957,-0.02,-0.48,1.08,9.16,24.67,17.01,30.41
67967,-0.05,-0.44,1.05,9.65,17.31,20.24,30.41
67977,-0.08,-0.42,1.02,8.09,11.47,23.22,30.41
67987,-0.14,-0.42,1.02,4.05,3.02,22.27,30.41
67997,-0.21,-0.43,1.05,2.21,-10.69,20.02,30.41
68007,-0.27,-0.43,1.03,2.46,-21.77,21.08,30.41
68017,-0.33,-0.43,1.04,3.37,-29.02,24.85,30.32
68027,-0.41,-0.42,1.07,5.60,-27.25,31.08,30.46
68037,-0.47,-0.43,1.11,9.98,-27.07,36.87,30.46
68047,-0.56,-0.42,1.14,16.24,-34.20,43.97,30.46
68057,-0.60,-0.40,1.08,22.58,-36.75,49.91,30.37
68067,-0.69,-0.37,1.04,25.31,-45.36,56.03,30.46
68077,-0.72,-0.35,0.98,25.27,-54.47,63.25,30.46
68087,-0.73,-0.32,0.90,22.21,-63.01,72.89,30.37
68097,-0.71,-0.32,0.83,20.03,-63.77,87.05,30.46
68107,-0.66,-0.31,0.79,15.65,-60.31,103.56,30.41
68117,-0.60,-0.33,0.74,11.18,-55.60,117.27,30.60
68127,-0.55,-0.36,0.76,5.73,-51.91,127.77,30.41
68137,-0.48,-0.41,0.79,1.66,-52.27,134.99,30.41
68147,-0.41,-0.45,0.84,0.82,-57.22,139.98,30.41
68157,-0.36,-0.52,0.87,1.27,-59.31,139.37,30.41
68167,-0.29,-0.57,0.88,2.58,-65.92,137.89,30.41
68177,-0.25,-0.59,0.88,4.35,-71.15,136.76,30.41
68187,-0.20,-0.57,0.84,5.71,-73.66,135.60,30.51
68197,-0.17,-0.56,0.83,4.34,-76.82,136.38,30.37
68207,-0.15,-0.56,0.82,0.72,-80.43,138.72,30.46
68217,-0.15,-0.58,0.84,-1.85,-89.56,143.10,30.46
68227,-0.09,-0.60,0.83,-3.21,-93.80,146.69,30.46
68237,0.01,-0.67,0.84,-0.98,-95.53,148.26,30.37
68247,0.09,-0.72,0.84,1.02,-90.63,145.22,30.46
68257,0.14,-0.75,0.87,4.50,-83.95,140.95,30.37
68267,0.15,-0.76,0.89,9.07,-76.63,138.02,30.37
68277,0.18,-0.76,0.91,14.78,-70.95,133.71,30.41
68287,0.15,-0.73,0.90,20.92,-68.69,130.58,30.41
68297,0.14,-0.67,0.85,20.12,-65.18,131.19,30.41
68307,0.11,-0.62,0.83,17.25,-68.52,132.87,30.41
68317,0.06,-0.53,0.78,9.98,-68.95,136.06,30.41
68327,-0.01,-0.52,0.77,-1.22,-69.73,144.41,30.37
68337,-0.02,-0.57,0.80,-11.63,-66.52,154.93,30.41
68347,-0.00,-0.66,0.84,-13.88,-61.85,162.40,30.37
68357,0.05,-0.75,0.85,-9.91,-54.73,167.77,30.46
68367,0.09,-0.82,0.85,-4.18,-46.32,170.84,30.37
68377,0.12,-0.89,0.87,0.50,-44.21,170.12,30.37
68387,0.14,-0.90,0.84,2.38,-48.37,167.91,30.46
68397,0.15,-0.89,0.80,-0.84,-54.70,166.98,30.37
68407,0.17,-0.90,0.78,-6.84,-62.46,165.85,30.37
68417,0.22,-0.93,0.76,-11.71,-66.72,164.66,30.37
68427,0.28,-0.97,0.74,-10.09,-66.02,160.90,30.32
68437,0.29,-1.01,0.80,-3.86,-63.25,156.02,30.41
68447,0.33,-1.01,0.80,7.48,-53.62,151.50,30.41
68457,0.32,-0.98,0.78,16.73,-52.70,147.50,30.41
68467,0.31,-0.93,0.73,21.74,-45.45,144.50,30.32
68477,0.26,-0.87,0.72,22.79,-44.72,143.69,30.51
68487,0.25,-0.83,0.67,17.21,-43.33,143.08,30.41
68497,0.19,-0.82,0.70,8.26,-52.96,140.03,30.37
68507,0.17,-0.85,0.76,4.58,-65.47,134.79,30.46
68517,0.19,-0.88,0.74,3.69,-76.26,127.02,30.37
68527,0.24,-0.89,0.74,5.53,-76.46,120.82,30.37
68537,0.30,-0.90,0.71,11.88,-69.62,114.81,30.46
68547,0.29,-0.88,0.72,15.97,-56.72,109.48,30.46
68557,0.25,-0.83,0.74,20.11,-47.73,106.81,30.46
68567,0.21,-0.79,0.74,19.40,-36.46,105.53,30.46
68577,0.16,-0.74,0.76,14.27,-29.62,103.73,30.32
68587,0.10,-0.71,0.78,7.95,-25.28,102.90,30.51
68597,0.05,-0.70,0.83,2.78,-28.35,104.64,30.41
68607,0.01,-0.72,0.87,-2.02,-36.15,104.23,30.41
68617,0.00,-0.72,0.89,-5.01,-45.83,101.51,30.41
68627,0.01,-0.73,0.89,-4.89,-49.16,98.99,30.37
68637,0.02,-0.73,0.91,-4.61,-45.97,99.42,30.41
68647,0.02,-0.75,0.95,-3.76,-39.08,101.66,30.46
68657,0.01,-0.78,1.01,-1.92,-35.95,102.92,30.37
68667,-0.00,-0.78,1.05,1.22,-38.46,101.83,30.46
68677,-0.01,-0.76,1.01,4.95,-43.77,99.56,30.37
68687,0.01,-0.72,0.95,10.32,-49.40,98.58,30.37
68697,0.04,-0.68,0.89,9.89,-48.95,98.38,30.46
68707,0.05,-0.63,0.82,5.88,-47.73,99.27,30.37
68717,0.05,-0.61,0.79,1.62,-42.89,101.16,30.51
68727,0.07,-0.60,0.73,-1.36,-35.13,104.56,30.32
68737,0.09,-0.57,0.67,-4.43,-21.11,106.89,30.41
68747,0.05,-0.55,0.64,-8.09,-8.44,110.95,30.41
68757,0.05,-0.54,0.64,-11.13,2.47,114.82,30.41
68767,0.07,-0.55,0.63,-14.23,11.74,118.73,30.41
68777,0.07,-0.56,0.66,-17.92,19.48,120.72,30.41
68787,0.06,-0.60,0.73,-20.53,23.63,120.75,30.37
68797,-0.01,-0.62,0.81,-25.40,22.55,117.77,30.46
68807,-0.08,-0.64,0.91,-25.60,13.59,115.22,30.46
68817,-0.09,-0.66,0.95,-20.90,3.45,112.67,30.37
68827,-0.07,-0.68,1.00,-16.23,-8.66,108.93,30.37
68837,-0.07,-0.70,1.01,-12.92,-22.53,103.13,30.46
68847,-0.05,-0.69,1.00,-11.36,-35.28,98.08,30.37
68857,-0.04,-0.68,0.99,-8.61,-45.91,94.84,30.41
68867,-0.01,-0.68,0.95,-6.31,-49.34,92.18,30.32
68877,0.00,-0.66,0.93,-5.10,-51.79,90.82,30.32
68887,0.01,-0.64,0.91,-4.93,-54.08,90.05,30.41
68897,0.03,-0.63,0.89,-5.40,-56.63,88.64,30.41
68907,0.04,-0.62,0.88,-7.30,-59.33,86.72,30.41
68917,0.03,-0.62,0.88,-7.74,-62.85,84.75,30.32
68927,0.05,-0.63,0.87,-6.79,-63.54,84.85,30.46
68937,0.07,-0.63,0.87,-5.22,-62.05,84.79,30.37
68947,0.08,-0.63,0.86,-4.05,-59.19,82.73,30.46
68957,0.09,-0.62,0.85,-1.60,-56.64,82.12,30.37
68967,0.09,-0.62,0.84,-1.47,-52.35,82.67,30.37
68977,0.08,-0.61,0.87,-1.25,-49.48,82.50,30.37
68987,0.09,-0.61,0.87,-1.95,-45.83,81.02,30.46
68997,0.09,-0.62,0.88,-3.50,-45.53,79.92,30.37
69007,0.07,-0.60,0.90,-4.20,-46.02,79.02,30.51
69017,0.07,-0.60,0.89,-4.56,-45.76,78.08,30.41
69027,0.08,-0.58,0.89,-2.69,-41.56,78.85,30.32
69037,0.10,-0.59,0.86,-1.83,-34.11,80.63,30.41
69047,0.09,-0.62,0.90,-2.78,-31.01,80.08,30.41
69057,0.08,-0.63,0.93,-3.59,-31.56,76.00,30.46
69067,0.09,-0.64,0.93,-4.37,-36.55,71.27,30.32
69077,0.09,-0.64,0.93,-4.98,-39.30,68.02,30.46
69087,0.08,-0.61,0.91,-6.23,-35.37,68.73,30.46
69097,0.08,-0.60,0.92,-6.89,-24.64,74.64,30.37
69107,0.11,-0.63,0.94,-8.78,-9.22,79.39,30.46
69117,0.08,-0.67,1.05,-8.70,-3.69,79.15,30.37
69127,0.04,-0.68,1.14,-3.80,-16.69,71.27,30.46
69137,0.06,-0.61,1.09,2.06,-31.91,59.97,30.37
69147,0.07,-0.57,0.95,7.71,-43.97,51.05,30.41
69157,0.07,-0.50,0.84,9.27,-45.80,47.69,30.41
69167,0.05,-0.46,0.77,5.68,-36.81,50.76,30.51
69177,0.04,-0.46,0.76,-0.92,-18.23,54.81,30.41
69187,-0.01,-0.46,0.78,-6.40,-3.97,59.60,30.27
69197,-0.06,-0.48,0.84,-11.95,0.56,62.92,30.41
69207,-0.09,-0.51,0.89,-14.21,-0.26,65.83,30.41
69217,-0.07,-0.55,0.95,-13.10,-1.73,66.81,30.37
69227,-0.04,-0.59,0.99,-9.54,-1.85,66.95,30.46
69237,-0.03,-0.59,1.03,-6.26,-3.08,65.83,30.46
69247,-0.03,-0.60,1.05,-2.63,-8.02,64.09,30.37
69257,-0.01,-0.58,1.02,-1.36,-12.92,60.99,30.37
69267,0.01,-0.54,0.98,-2.35,-20.75,58.24,30.46
69277,0.04,-0.52,0.92,-3.60,-21.60,56.82,30.37
69287,0.07,-0.51,0.90,-5.51,-16.52,58.03,30.46
69297,0.09,-0.51,0.91,-6.20,-7.39,59.34,30.41
69307,0.09,-0.53,0.93,-6.27,-1.31,59.62,30.32
69317,0.07,-0.54,0.98,-6.67,0.17,58.64,30.41
69327,0.07,-0.55,0.98,-4.63,0.50,55.71,30.41
69337,0.06,-0.53,0.97,-2.75,-1.54,55.39,30.32
69347,0.06,-0.52,0.92,-0.81,0.43,57.36,30.32
69357,0.05,-0.52,0.96,2.63,1.66,58.06,30.46
69367,0.05,-0.54,0.97,9.48,3.92,61.27,30.37
69377,0.07,-0.52,0.99,16.81,9.74,56.69,30.27
69387,0.09,-0.49,0.98,21.48,15.98,50.58,30.37
69397,0.09,-0.47,0.93,22.78,23.95,47.69,30.46
69407,0.06,-0.46,0.94,23.10,24.99,42.84,30.37
69417,0.03,-0.45,0.94,20.09,21.21,36.55,30.37
69427,-0.04,-0.44,0.95,15.98,11.28,32.14,30.46
69437,-0.06,-0.43,0.93,11.79,-2.34,30.70,30.41
69447,-0.04,-0.42,0.92,7.63,-13.56,29.69,30.32
69457,0.01,-0.42,0.90,4.64,-15.21,29.54,30.32
69467,0.03,-0.43,0.92,3.83,-13.39,29.77,30.41
69477,0.07,-0.45,0.94,5.92,-8.81,29.74,30.41
69487,0.11,-0.47,0.99,10.17,-4.87,29.10,30.37
69497,0.15,-0.49,0.98,14.82,-4.37,27.42,30.41
69507,0.15,-0.48,1.00,13.92,-3.59,22.46,30.37
69517,0.12,-0.45,1.02,11.24,-6.18,16.76,30.37
69527,0.11,-0.44,1.02,7.24,-6.15,13.01,30.37
69537,0.09,-0.44,1.05,5.34,-8.14,10.29,30.37
69547,0.04,-0.43,1.03,4.21,-7.69,8.00,30.37
69557,0.01,-0.42,1.01,2.73,-9.69,9.18,30.46
69567,0.02,-0.38,0.99,1.82,-10.40,11.42,30.37
69577,0.03,-0.39,0.98,-0.32,-9.62,13.13,30.37
69587,0.07,-0.39,0.98,-3.62,-8.50,14.24,30.41
69597,0.11,-0.40,0.99,-6.82,-7.60,14.32,30.41
69607,0.19,-0.40,1.00,-9.74,-4.26,12.63,30.41
69617,0.24,-0.41,1.00,-12.50,0.03,10.14,30.41
69627,0.27,-0.45,1.03,-14.84,9.13,7.85,30.32
69637,0.28,-0.49,1.07,-13.16,18.85,3.73,30.32
69647,0.20,-0.53,1.16,-7.51,24.44,-4.34,30.41
69657,0.04,-0.53,1.22,0.18,16.64,-10.76,30.46
69667,-0.05,-0.51,1.23,6.32,-3.28,-14.18,30.37
69677,-0.07,-0.50,1.20,9.42,-27.62,-19.11,30.37
69687,-0.08,-0.46,1.13,9.91,-48.14,-25.19,30.37
69697,-0.08,-0.39,1.00,8.43,-52.09,-27.63,30.27
69707,-0.10,-0.35,0.94,8.56,-49.66,-22.15,30.37
69717,-0.08,-0.32,0.85,6.03,-34.89,-11.28,30.46
69727,-0.06,-0.32,0.82,3.04,-17.82,-2.92,30.41
69737,-0.01,-0.32,0.83,-1.47,-7.01,-0.43,30.51
69747,-0.01,-0.30,0.85,-7.91,-6.32,-1.31,30.41
69757,0.01,-0.33,0.89,-11.83,-7.89,-2.70,30.32
69767,0.02,-0.37,0.95,-11.31,-8.53,-4.69,30.41
69777,0.05,-0.40,0.97,-7.95,-8.47,-6.50,30.41
69787,0.07,-0.41,0.98,-5.98,-7.85,-9.95,30.37
69797,0.08,-0.41,0.98,-4.87,-8.18,-13.79,30.32
69807,0.07,-0.41,1.00,-3.60,-8.09,-18.66,30.37
69817,0.05,-0.41,1.00,-1.02,-8.21,-21.71,30.46
69827,0.04,-0.39,0.99,0.93,-8.82,-25.36,30.46
69837,0.02,-0.39,0.97,0.93,-11.48,-28.14,30.37
69847,0.02,-0.37,0.96,1.33,-12.06,-29.13,30.37
69857,0.06,-0.34,0.93,0.72,-6.15,-29.19,30.37
69867,0.10,-0.35,0.93,-1.36,3.62,-29.18,30.51
69877,0.04,-0.40,0.98,-2.82,11.16,-32.38,30.41
69887,-0.09,-0.42,1.05,-1.82,13.94,-35.33,30.41
69897,-0.23,-0.42,1.10,5.22,5.73,-32.24,30.41
69907,-0.33,-0.40,1.14,10.87,-7.02,-27.76,30.32
69917,-0.42,-0.41,1.22,14.20,-27.53,-22.70,30.46
69927,-0.44,-0.34,1.22,17.45,-59.48,-19.37,30.46
69937,-0.38,-0.29,1.15,20.82,-92.56,-15.45,30.46
69947,-0.18,-0.22,1.04,16.44,-117.48,-13.62,30.46
69957,0.04,-0.20,0.90,5.89,-130.34,-13.28,30.46
69967,0.22,-0.26,0.86,-9.80,-123.07,-13.60,30.37
69977,0.32,-0.40,0.94,-20.78,-105.18,-13.48,30.46
69987,0.42,-0.52,1.04,-23.10,-78.38,-17.42,30.32
69997,0.40,-0.58,1.15,-14.29,-51.18,-28.37,30.41
70007,0.25,-0.54,1.20,3.86,-42.09,-35.59,30.41
70017,0.15,-0.43,1.08,22.00,-41.36,-32.87,30.51
70027,0.15,-0.35,0.95,26.84,-41.45,-26.78,30.41
70037,0.19,-0.30,0.84,21.85,-35.94,-25.04,30.41
70047,0.24,-0.28,0.83,8.67,-28.99,-26.84,30.37
70057,0.27,-0.32,0.86,-1.82,-25.77,-29.79,30.46
70067,0.31,-0.40,0.94,-6.69,-26.82,-36.00,30.46
70077,0.34,-0.46,0.99,-1.92,-31.56,-41.94,30.37
70087,0.37,-0.47,1.01,5.88,-30.72,-47.36,30.37
70097,0.37,-0.43,0.94,15.11,-20.89,-46.99,30.46
70107,0.41,-0.41,0.87,20.75,4.66,-41.33,30.41
70117,0.36,-0.40,0.87,21.76,30.72,-33.07,30.41
70127,0.29,-0.43,0.91,22.41,53.91,-24.93,30.51
70137,0.24,-0.46,0.98,21.31,67.40,-21.77,30.41
70147,0.18,-0.50,1.07,23.62,65.65,-23.71,30.32
70157,0.16,-0.49,1.11,26.66,49.02,-33.50,30.41
70167,0.12,-0.46,1.10,27.65,23.97,-45.33,30.37
70177,0.09,-0.42,1.05,30.32,-0.53,-49.33,30.46
70187,0.04,-0.37,0.99,32.90,-9.63,-40.06,30.46
70197,0.07,-0.32,0.91,36.00,7.59,-17.66,30.37
70207,0.13,-0.32,0.80,42.24,52.67,7.62,30.46
70217,0.16,-0.35,0.80,40.63,102.27,18.84,30.46
70227,0.14,-0.42,1.01,30.79,125.40,14.50,30.41
70237,0.03,-0.43,1.19,32.21,120.11,1.51,30.41
70247,-0.12,-0.37,1.23,37.18,86.05,-7.15,30.41
70257,-0.16,-0.21,1.14,41.36,54.38,-12.02,30.41
70267,-0.11,-0.11,0.95,46.50,18.06,-19.34,30.46
70277,-0.07,-0.03,0.77,36.41,-7.19,-23.92,30.32
70287,-0.09,-0.02,0.73,18.21,-14.41,-18.81,30.37
70297,-0.11,-0.05,0.73,4.32,-9.53,-6.11,30.37
70307,-0.03,-0.13,0.74,-6.41,15.94,5.36,30.46
70317,0.03,-0.23,0.83,-15.18,46.02,11.47,30.46
70327,0.08,-0.26,0.91,-23.48,71.62,9.13,30.27
70337,0.04,-0.25,0.99,-27.60,75.62,1.27,30.37
70347,-0.02,-0.25,1.07,-30.37,62.85,-5.28,30.46
70357,-0.06,-0.23,1.04,-30.12,44.26,-7.69,30.41
70367,-0.07,-0.19,1.02,-30.43,30.64,-6.55,30.41
70377,-0.06,-0.20,1.00,-28.60,25.60,-2.67,30.41
70387,-0.09,-0.19,1.03,-29.85,26.98,1.30,30.32
70397,-0.12,-0.20,1.04,-29.88,29.95,5.63,30.46
70407,-0.09,-0.22,1.08,-28.06,35.79,8.89,30.41
70417,-0.05,-0.23,1.09,-26.44,39.63,6.55,30.37
70427,-0.02,-0.26,1.08,-24.78,43.45,1.86,30.37
70437,-0.06,-0.24,1.08,-23.95,41.13,-1.27,30.37
70447,-0.10,-0.25,1.07,-21.11,35.94,1.24,30.37
70457,-0.09,-0.22,1.03,-22.78,36.85,5.54,30.46
70467,-0.09,-0.20,1.04,-25.88,33.37,9.69,30.37
70477,-0.10,-0.18,1.07,-30.52,31.48,12.82,30.46
70487,-0.12,-0.18,1.10,-33.19,27.37,16.38,30.41
70497,-0.11,-0.20,1.11,-31.56,25.91,18.58,30.32
70507,-0.08,-0.22,1.09,-26.50,22.09,18.40,30.32
70517,-0.05,-0.24,1.06,-23.28,21.08,15.66,30.32
70527,-0.03,-0.23,1.00,-23.83,23.16,13.04,30.37
70537,-0.04,-0.23,0.98,-22.87,30.02,12.00,30.32
70547,-0.09,-0.23,0.99,-20.47,37.19,14.34,30.37
70557,-0.14,-0.22,1.01,-19.44,47.77,17.04,30.37
70567,-0.21,-0.25,1.06,-24.50,48.41,18.70,30.46
70577,-0.29,-0.28,1.15,-29.77,34.90,18.79,30.46
70587,-0.32,-0.31,1.21,-32.20,12.03,17.37,30.37
70597,-0.28,-0.39,1.21,-28.85,-8.89,15.54,30.46
70607,-0.23,-0.44,1.16,-23.68,-24.58,12.66,30.32
70617,-0.14,-0.46,1.09,-16.29,-30.00,8.64,30.41
70627,-0.11,-0.47,1.05,-11.10,-30.41,5.59,30.32
70637,-0.11,-0.48,1.01,-6.49,-25.28,5.92,30.41
70647,-0.11,-0.44,0.96,-4.18,-14.60,9.60,30.51
70657,-0.10,-0.43,0.93,-1.45,-5.94,14.82,30.37
70667,-0.05,-0.42,0.89,-3.83,-2.64,16.41,30.46
70677,-0.04,-0.43,0.92,-7.62,-14.00,14.50,30.46
70687,0.02,-0.40,0.90,-14.23,-15.56,8.60,30.37
70697,0.02,-0.45,0.93,-17.08,-24.23,2.66,30.46
70707,-0.00,-0.46,0.94,-17.21,-22.52,1.74,30.37
70717,-0.01,-0.46,0.97,-13.65,-12.11,1.11,30.27
70727,-0.03,-0.47,1.00,-6.61,-4.34,1.25,30.46
70737,-0.07,-0.44,0.98,0.44,1.15,0.46,30.41
