Timestamp,Acce_X,Acce_Y,Acce_Z,Gyro_X,Gyro_Y,Gyro_Z,Temp
58577,-0.17,-0.07,1.07,-4.70,4.18,-7.53,33.33
58587,-0.21,-0.06,1.08,-4.21,1.48,-4.69,33.33
58597,-0.20,-0.06,1.07,-4.38,-0.47,-2.32,33.33
58607,-0.17,-0.06,1.05,-4.12,1.16,-0.75,33.33
58617,-0.15,-0.07,1.05,-4.21,3.53,-0.06,33.24
58627,-0.12,-0.08,1.05,-4.89,5.65,0.02,33.33
58637,-0.11,-0.08,1.05,-5.24,5.15,-1.53,33.24
58647,-0.12,-0.08,1.07,-5.37,2.64,-3.19,33.33
58657,-0.13,-0.08,1.05,-5.54,1.62,-3.37,33.33
58667,-0.13,-0.07,1.05,-5.89,1.91,-3.22,33.33
58677,-0.12,-0.08,1.04,-6.20,4.50,-2.52,33.33
58687,-0.12,-0.09,1.05,-6.29,5.73,-1.68,33.33
58697,-0.10,-0.08,1.05,-6.41,7.15,-1.33,33.33
58707,-0.08,-0.09,1.05,-6.32,6.87,-1.53,33.33
58717,-0.05,-0.10,1.06,-5.68,5.60,-2.75,33.28
58727,-0.04,-0.10,1.06,-5.48,5.56,-4.55,33.24
58737,-0.05,-0.10,1.05,-5.74,5.54,-5.94,33.33
58747,-0.03,-0.11,1.05,-5.89,5.71,-6.43,33.28
58757,-0.01,-0.11,1.06,-5.89,6.66,-6.46,33.28
58767,0.01,-0.13,1.06,-5.15,9.05,-6.35,33.28
58777,0.04,-0.12,1.03,-5.30,11.83,-5.13,33.28
58787,0.10,-0.14,1.08,-4.24,12.00,-5.98,33.47
58797,0.14,-0.13,1.09,-3.94,9.54,-9.16,33.28
58807,0.19,-0.15,1.11,-3.40,4.53,-13.97,33.38
58817,0.20,-0.14,1.12,-1.73,-3.45,-20.37,33.28
58827,0.21,-0.14,1.10,-0.79,-6.58,-26.92,33.28
58837,0.19,-0.14,1.09,-1.51,-4.66,-31.44,33.28
58847,0.16,-0.13,1.06,-1.92,-1.82,-34.37,33.19
58857,0.15,-0.13,1.06,-3.54,2.24,-38.06,33.28
58867,0.11,-0.13,1.07,-4.35,1.30,-41.62,33.28
58877,0.08,-0.12,1.08,-4.98,-0.40,-43.88,33.38
58887,0.06,-0.13,1.08,-5.18,-1.33,-45.57,33.28
58897,0.06,-0.13,1.09,-5.45,-0.44,-47.02,33.28
58907,0.05,-0.14,1.09,-5.08,0.89,-49.04,33.28
58917,0.04,-0.15,1.10,-4.66,1.69,-50.21,33.38
58927,0.03,-0.16,1.11,-2.64,2.08,-51.50,33.38
58937,0.05,-0.16,1.09,-1.68,5.59,-53.02,33.38
58947,0.05,-0.16,1.10,-0.31,9.28,-54.92,33.28
58957,0.05,-0.17,1.12,1.08,10.61,-56.78,33.38
58967,0.06,-0.19,1.13,1.91,9.31,-60.38,33.28
58977,0.04,-0.18,1.12,1.34,7.66,-63.50,33.28
58987,0.03,-0.18,1.11,1.54,5.62,-65.48,33.28
58997,0.02,-0.18,1.09,1.94,6.40,-66.03,33.28
59007,0.02,-0.19,1.09,1.95,8.50,-65.51,33.38
59017,0.05,-0.20,1.10,2.72,9.63,-66.96,33.38
59027,0.03,-0.23,1.13,1.77,6.41,-69.92,33.28
59037,0.02,-0.23,1.15,2.67,2.44,-72.49,33.28
59047,0.02,-0.24,1.15,4.47,-0.69,-73.18,33.38
59057,0.06,-0.27,1.14,6.96,-2.29,-74.81,33.38
59067,0.09,-0.28,1.12,10.23,-1.91,-78.53,33.38
59077,0.09,-0.25,1.11,9.08,1.25,-82.20,33.24
59087,0.09,-0.28,1.11,9.05,4.15,-85.60,33.38
59097,0.08,-0.28,1.09,8.40,8.29,-88.76,33.38
59107,0.05,-0.28,1.09,7.56,7.65,-91.71,33.47
59117,0.03,-0.28,1.07,7.10,8.61,-94.31,33.24
59127,0.02,-0.29,1.07,5.62,8.81,-95.08,33.28
59137,0.02,-0.31,1.09,5.50,8.29,-96.85,33.28
59147,-0.00,-0.32,1.05,5.33,10.53,-96.44,33.38
59157,0.01,-0.32,1.03,4.96,13.68,-96.03,33.33
59167,0.05,-0.34,1.02,6.06,18.14,-97.11,33.28
59177,0.07,-0.35,1.00,7.37,25.05,-97.92,33.38
59187,0.10,-0.36,1.00,8.66,31.89,-100.35,33.28
59197,0.11,-0.39,1.00,8.11,35.76,-106.31,33.24
59207,0.08,-0.40,1.04,6.20,34.87,-113.68,33.38
59217,-0.01,-0.40,1.08,4.92,25.02,-120.31,33.19
59227,-0.10,-0.37,1.09,5.27,13.25,-122.23,33.28
59237,-0.15,-0.36,1.06,7.33,4.27,-119.73,33.24
59247,-0.11,-0.36,1.00,10.50,4.20,-117.77,33.24
59257,-0.08,-0.38,0.96,10.35,9.48,-117.01,33.24
59267,-0.09,-0.39,0.99,10.98,9.65,-118.32,33.24
59277,-0.10,-0.41,1.00,9.27,7.45,-121.36,33.42
59287,-0.12,-0.42,1.00,7.44,4.72,-123.13,33.24
59297,-0.12,-0.43,1.00,7.74,8.26,-122.20,33.24
59307,-0.10,-0.44,1.01,8.67,12.99,-121.86,33.33
59317,-0.06,-0.44,0.97,8.76,18.92,-122.73,33.24
59327,-0.04,-0.44,0.99,8.70,22.24,-124.96,33.33
59337,-0.01,-0.46,0.98,9.59,26.98,-128.69,33.33
59347,-0.01,-0.47,0.98,8.76,29.48,-134.56,33.33
59357,-0.06,-0.48,1.03,6.00,26.90,-141.21,33.33
59367,-0.15,-0.47,1.07,4.18,17.63,-144.89,33.33
59377,-0.21,-0.49,1.08,4.11,4.00,-144.90,33.24
59387,-0.19,-0.48,1.06,5.36,-6.08,-143.45,33.24
59397,-0.16,-0.47,1.00,7.02,-11.47,-142.06,33.24
59407,-0.08,-0.49,0.92,6.35,-9.60,-142.81,33.24
59417,-0.02,-0.49,0.88,1.74,-1.13,-147.07,33.33
59427,-0.03,-0.51,0.90,-3.68,9.11,-151.18,33.24
59437,-0.07,-0.51,0.93,-4.90,17.97,-153.08,33.33
59447,-0.09,-0.50,0.93,-6.76,30.00,-153.71,33.33
59457,-0.12,-0.53,0.98,-6.95,39.65,-152.58,33.33
59467,-0.12,-0.54,1.03,-2.23,45.82,-150.63,33.33
59477,-0.09,-0.56,0.97,3.28,53.83,-148.34,33.33
59487,-0.01,-0.61,0.95,9.51,60.08,-146.34,33.33
59497,0.10,-0.64,0.91,12.38,57.83,-155.34,33.33
59507,0.09,-0.66,0.91,6.46,51.69,-167.18,33.24
59517,0.05,-0.68,1.00,3.62,39.69,-181.11,33.24
59527,-0.06,-0.70,1.05,1.69,31.13,-190.55,33.33
59537,-0.16,-0.72,1.11,3.91,22.49,-191.73,33.24
59547,-0.16,-0.75,1.07,11.10,25.31,-190.55,33.33
59557,-0.14,-0.78,0.97,18.20,36.29,-190.35,33.24
59567,-0.08,-0.79,0.89,24.87,48.69,-191.66,33.24
59577,-0.08,-0.80,0.82,22.09,57.54,-197.86,33.33
59587,-0.16,-0.77,0.84,18.64,48.08,-203.10,33.33
59597,-0.18,-0.76,0.82,14.85,35.71,-207.22,33.24
59607,-0.21,-0.77,0.79,5.92,26.06,-212.61,33.24
59617,-0.26,-0.79,0.82,-2.78,21.89,-214.41,33.33
59627,-0.27,-0.82,0.86,-7.54,22.47,-211.95,33.33
59637,-0.28,-0.85,0.88,-12.00,25.22,-210.18,33.24
59647,-0.30,-0.87,0.96,-13.48,19.28,-211.22,33.33
59657,-0.30,-0.85,1.02,-11.97,3.54,-213.51,33.33
59667,-0.32,-0.83,0.99,-12.84,-13.40,-215.36,33.33
59677,-0.34,-0.78,0.96,-16.92,-19.68,-214.32,33.33
59687,-0.37,-0.76,0.93,-21.47,-21.42,-210.20,33.33
59697,-0.37,-0.76,0.91,-28.90,-17.62,-204.92,33.33
59707,-0.41,-0.75,1.01,-34.96,-25.63,-200.82,33.24
59717,-0.41,-0.76,1.07,-37.88,-36.63,-195.97,33.33
59727,-0.39,-0.75,1.10,-39.33,-46.49,-191.68,33.33
59737,-0.35,-0.74,1.09,-39.51,-49.13,-187.98,33.42
59747,-0.33,-0.72,1.07,-38.64,-49.02,-183.45,33.33
59757,-0.27,-0.71,1.03,-39.51,-41.60,-178.99,33.28
59767,-0.24,-0.69,1.00,-42.63,-28.95,-175.51,33.38
59777,-0.23,-0.68,1.01,-44.79,-17.01,-172.09,33.19
59787,-0.25,-0.67,1.06,-44.95,-10.15,-168.09,33.38
59797,-0.26,-0.65,1.10,-41.45,-8.06,-163.82,33.28
59807,-0.24,-0.64,1.10,-38.56,-6.43,-161.07,33.38
59817,-0.25,-0.64,1.14,-33.50,-17.08,-160.52,33.38
59827,-0.29,-0.60,1.13,-31.79,-30.41,-159.05,33.28
59837,-0.31,-0.56,1.12,-30.98,-42.08,-155.19,33.38
59847,-0.31,-0.52,1.08,-30.31,-48.56,-149.31,33.38
59857,-0.30,-0.49,1.06,-29.08,-44.73,-140.66,33.38
59867,-0.27,-0.47,1.05,-27.07,-34.64,-131.25,33.28
59877,-0.24,-0.45,1.03,-23.28,-23.94,-123.92,33.28
59887,-0.23,-0.43,0.99,-20.56,-12.15,-114.67,33.28
59897,-0.21,-0.42,1.00,-17.68,-0.93,-106.46,33.28
59907,-0.20,-0.40,1.03,-14.03,1.88,-100.85,33.28
59917,-0.19,-0.38,1.03,-11.18,4.37,-94.23,33.28
59927,-0.20,-0.35,1.00,-8.47,5.22,-88.98,33.28
59937,-0.22,-0.33,0.98,-6.44,5.08,-80.69,33.28
59947,-0.19,-0.32,0.96,-5.65,7.68,-70.11,33.28
59957,-0.07,-0.32,0.90,-4.63,19.74,-64.02,33.28
59967,-0.07,-0.31,0.92,-4.95,40.26,-58.60,33.28
59977,-0.11,-0.28,0.97,-3.15,49.91,-50.81,33.28
59987,-0.13,-0.27,0.99,-1.54,51.94,-43.91,33.28
59997,-0.11,-0.28,1.00,-0.98,46.44,-39.42,33.28
60007,-0.10,-0.29,0.99,-2.29,43.85,-37.56,33.28
60017,-0.17,-0.30,1.04,-3.63,40.90,-34.40,33.28
60027,-0.23,-0.29,1.08,-2.79,37.31,-27.89,33.28
60037,-0.25,-0.28,1.08,0.76,39.42,-19.95,33.19
60047,-0.25,-0.29,1.06,4.49,50.52,-12.32,33.33
60057,-0.26,-0.29,1.08,9.07,61.16,-2.90,33.28
60067,-0.24,-0.28,1.06,13.05,70.32,6.38,33.28
60077,-0.21,-0.28,1.06,17.44,67.69,14.96,33.38
60087,-0.13,-0.29,1.02,17.83,57.86,20.11,33.24
60097,-0.08,-0.30,0.99,16.63,43.36,21.68,33.28
60107,-0.00,-0.31,0.96,12.69,27.92,21.21,33.28
60117,0.07,-0.31,0.93,7.19,14.52,19.66,33.28
60127,0.12,-0.31,0.92,2.93,7.63,17.54,33.33
60137,0.17,-0.31,0.90,-0.06,5.24,16.64,33.28
60147,0.22,-0.33,0.88,-2.24,6.87,15.19,33.19
60157,0.24,-0.33,0.91,-4.63,10.98,12.44,33.38
60167,0.23,-0.34,0.93,-6.38,12.55,10.21,33.33
60177,0.19,-0.34,0.96,-8.06,12.73,8.69,33.38
60187,0.16,-0.32,0.99,-9.45,11.18,7.66,33.33
60197,0.12,-0.32,1.02,-10.75,7.18,6.81,33.33
60207,0.07,-0.32,1.06,-10.75,0.72,6.93,33.24
60217,0.05,-0.32,1.10,-9.74,-4.66,6.99,33.33
60227,0.01,-0.33,1.13,-7.79,-7.34,8.03,33.33
60237,-0.02,-0.32,1.13,-4.55,-7.02,10.70,33.24
60247,-0.05,-0.30,1.12,-0.73,-1.69,15.57,33.33
60257,-0.05,-0.30,1.07,0.72,6.81,21.02,33.33
60267,-0.06,-0.31,1.08,3.13,14.69,25.73,33.33
60277,-0.08,-0.30,1.07,4.67,20.09,30.05,33.24
60287,-0.05,-0.30,1.07,5.71,25.01,32.79,33.33
60297,-0.08,-0.29,1.07,6.73,26.85,35.59,33.33
60307,-0.10,-0.28,1.07,7.86,26.11,39.40,33.14
60317,-0.13,-0.29,1.08,8.27,23.30,42.58,33.33
60327,-0.15,-0.29,1.10,9.66,17.69,45.57,33.33
60337,-0.17,-0.28,1.10,11.04,12.44,49.25,33.33
60347,-0.18,-0.28,1.10,12.21,8.87,53.57,33.24
60357,-0.16,-0.28,1.10,14.46,6.99,56.15,33.33
60367,-0.16,-0.28,1.07,14.11,7.63,58.18,33.33
60377,-0.17,-0.28,1.07,14.08,7.86,60.50,33.33
60387,-0.17,-0.27,1.07,14.72,6.84,63.02,33.24
60397,-0.17,-0.28,1.05,15.37,7.15,65.69,33.24
60407,-0.17,-0.27,1.04,16.24,6.46,68.26,33.33
60417,-0.18,-0.28,1.01,16.50,5.45,70.70,33.24
60427,-0.18,-0.28,1.00,15.79,3.02,72.63,33.33
60437,-0.17,-0.27,0.98,14.49,0.49,74.84,33.33
60447,-0.17,-0.28,0.97,13.48,-3.24,77.01,33.24
60457,-0.17,-0.28,0.94,11.63,-4.20,80.15,33.24
60467,-0.16,-0.27,0.92,10.79,-5.66,83.42,33.33
60477,-0.17,-0.27,0.88,8.11,-6.44,86.92,33.42
60487,-0.17,-0.26,0.86,6.02,-8.14,90.44,33.24
60497,-0.17,-0.27,0.85,2.12,-10.82,94.43,33.24
60507,-0.15,-0.28,0.83,-2.09,-11.97,98.06,33.33
60517,-0.13,-0.29,0.83,-6.96,-14.12,99.95,33.14
60527,-0.12,-0.32,0.84,-11.21,-18.37,100.66,33.33
60537,-0.10,-0.33,0.85,-14.03,-20.95,101.48,33.24
60547,-0.09,-0.35,0.88,-15.59,-25.01,101.77,33.24
60557,-0.08,-0.37,0.88,-15.45,-24.21,101.94,33.33
60567,-0.04,-0.36,0.87,-14.81,-19.88,102.23,33.33
60577,-0.07,-0.39,0.90,-17.80,-15.48,103.02,33.24
60587,-0.08,-0.39,0.90,-20.29,-10.82,104.03,33.24
60597,-0.10,-0.40,0.95,-21.42,-11.65,105.82,33.24
60607,-0.11,-0.41,0.94,-23.47,-8.27,108.56,33.24
60617,-0.14,-0.42,0.99,-23.77,-2.43,111.22,33.14
60627,-0.16,-0.42,0.99,-24.73,0.63,114.84,33.24
60637,-0.17,-0.42,1.01,-26.73,2.37,117.76,33.33
60647,-0.18,-0.44,1.02,-28.89,0.85,119.59,33.33
60657,-0.18,-0.45,1.02,-31.85,0.37,120.41,33.24
60667,-0.17,-0.47,1.08,-30.60,-3.42,119.63,33.33
60677,-0.17,-0.49,1.09,-28.47,-5.85,120.02,33.33
60687,-0.20,-0.48,1.08,-26.41,-9.05,121.27,33.33
60697,-0.20,-0.49,1.06,-24.52,-11.82,123.56,33.24
60707,-0.19,-0.50,1.05,-22.82,-14.02,124.92,33.33
60717,-0.20,-0.50,1.04,-23.16,-14.20,126.76,33.28
60727,-0.24,-0.51,1.08,-22.63,-15.91,129.25,33.28
60737,-0.24,-0.52,1.08,-21.18,-18.34,131.68,33.28
60747,-0.27,-0.52,1.08,-22.70,-20.92,134.15,33.19
60757,-0.28,-0.53,1.11,-20.75,-28.60,135.89,33.28
60767,-0.31,-0.53,1.09,-18.67,-34.72,137.85,33.28
60777,-0.32,-0.54,1.08,-15.62,-40.44,140.29,33.28
60787,-0.31,-0.55,1.05,-13.18,-43.94,143.33,33.28
60797,-0.31,-0.56,1.02,-11.08,-45.65,146.82,33.19
60807,-0.29,-0.59,0.98,-11.02,-45.19,150.89,33.28
60817,-0.25,-0.61,0.97,-10.27,-42.44,154.52,33.28
60827,-0.22,-0.63,0.96,-9.89,-39.62,156.02,33.28
60837,-0.19,-0.65,0.96,-10.41,-34.92,156.20,33.28
60847,-0.20,-0.66,0.99,-9.59,-29.97,157.30,33.28
60857,-0.20,-0.66,0.99,-7.47,-28.11,158.35,33.19
60867,-0.20,-0.66,0.98,-6.21,-26.78,159.30,33.19
60877,-0.22,-0.65,0.98,-4.60,-30.05,161.21,33.28
60887,-0.20,-0.66,0.93,-3.33,-33.05,162.70,33.19
60897,-0.18,-0.66,0.94,-2.95,-32.87,164.29,33.28
60907,-0.15,-0.67,0.93,-2.55,-28.56,165.66,33.28
60917,-0.13,-0.66,0.92,-2.89,-17.66,165.39,33.28
60927,-0.12,-0.64,0.87,-1.48,7.76,167.97,33.19
60937,-0.14,-0.61,0.88,-0.27,44.76,169.07,33.28
60947,-0.24,-0.58,0.95,1.69,74.82,172.03,33.28
60957,-0.31,-0.58,1.00,4.99,83.91,175.83,33.19
60967,-0.32,-0.59,0.97,4.03,73.44,176.63,33.19
60977,-0.28,-0.61,0.95,-1.71,46.76,174.05,33.28
60987,-0.23,-0.60,0.94,-9.59,15.45,169.22,33.28
60997,-0.18,-0.60,0.93,-18.66,-8.96,164.70,33.28
61007,-0.10,-0.61,0.96,-25.24,-25.25,161.08,33.28
61017,-0.01,-0.63,1.00,-25.39,-33.77,157.11,33.28
61027,0.10,-0.64,1.01,-24.20,-33.50,149.77,33.38
61037,0.20,-0.63,1.03,-21.60,-21.44,141.22,33.28
61047,0.25,-0.60,1.08,-14.96,-3.92,131.24,33.28
61057,0.27,-0.59,1.13,-7.82,9.65,119.33,33.19
61067,0.25,-0.57,1.16,-2.95,10.06,103.66,33.19
61077,0.21,-0.51,1.18,-2.18,-6.98,87.08,33.19
61087,0.13,-0.46,1.16,-2.12,-29.74,72.14,33.28
61097,0.06,-0.42,1.11,-2.53,-45.97,60.55,33.19
61107,-0.04,-0.38,1.09,-1.30,-52.99,52.78,33.19
61117,-0.16,-0.33,1.04,0.93,-53.39,50.92,33.28
61127,-0.26,-0.29,1.00,-0.96,-49.92,53.48,33.19
61137,-0.31,-0.27,0.99,-0.60,-51.01,57.51,33.19
61147,-0.34,-0.26,0.96,0.05,-49.86,63.08,33.28
61157,-0.35,-0.25,0.93,-0.81,-46.40,69.21,33.38
61167,-0.34,-0.25,0.93,-1.88,-44.26,75.53,33.28
61177,-0.30,-0.26,0.91,-5.53,-41.22,80.06,33.28
61187,-0.27,-0.29,0.95,-11.89,-43.40,82.08,33.28
61197,-0.24,-0.30,1.00,-17.27,-46.50,82.24,33.19
61207,-0.21,-0.33,1.07,-19.11,-51.10,80.92,33.28
61217,-0.22,-0.34,1.12,-17.18,-57.37,80.09,33.24
61227,-0.22,-0.33,1.13,-12.93,-60.32,80.72,33.19
61237,-0.20,-0.34,1.13,-8.12,-60.17,81.68,33.28
61247,-0.17,-0.34,1.05,-3.88,-52.14,83.60,33.19
61257,-0.14,-0.34,1.03,-0.47,-38.98,85.56,33.24
61267,-0.11,-0.34,1.01,0.90,-27.16,86.03,33.28
61277,-0.10,-0.33,1.03,0.52,-19.59,85.45,33.28
61287,-0.11,-0.34,1.05,0.72,-19.53,84.69,33.19
61297,-0.10,-0.34,1.05,1.02,-21.45,83.56,33.33
61307,-0.10,-0.33,1.06,-0.67,-24.34,82.06,33.33
61317,-0.11,-0.31,1.06,-1.91,-26.11,81.24,33.33
61327,-0.11,-0.31,1.09,-2.49,-27.44,80.75,33.24
61337,-0.14,-0.31,1.11,-1.36,-31.36,81.76,33.24
61347,-0.13,-0.30,1.14,2.79,-36.96,82.84,33.33
61357,-0.08,-0.30,1.09,8.37,-39.34,83.59,33.33
61367,-0.04,-0.28,1.00,8.98,-39.51,84.14,33.24
61377,0.02,-0.28,0.96,5.86,-34.11,82.85,33.24
61387,0.00,-0.29,0.98,1.44,-30.85,80.95,33.24
61397,-0.03,-0.28,1.03,-1.28,-30.46,79.80,33.14
61407,-0.04,-0.28,1.09,0.24,-32.87,78.34,33.24
61417,-0.02,-0.29,1.03,1.37,-39.73,75.73,33.33
61427,-0.08,-0.27,1.06,4.75,-40.17,75.31,33.14
61437,-0.10,-0.24,0.99,8.67,-44.81,77.16,33.24
61447,-0.08,-0.22,0.90,7.36,-40.52,80.47,33.14
61457,-0.07,-0.21,0.87,4.66,-38.43,83.73,33.33
61467,-0.05,-0.21,0.88,1.62,-32.79,87.45,33.24
61477,0.01,-0.23,0.90,-1.85,-29.73,89.31,33.24
61487,0.07,-0.25,0.95,-4.66,-27.24,85.57,33.14
61497,0.05,-0.25,1.01,-6.46,-26.58,81.65,33.24
61507,0.03,-0.25,1.05,-3.15,-30.32,80.93,33.14
61517,0.04,-0.25,1.03,-0.15,-33.40,80.82,33.14
61527,0.08,-0.26,1.00,2.87,-33.77,81.01,33.33
61537,0.17,-0.27,0.97,1.95,-30.70,79.42,33.24
61547,0.21,-0.28,1.01,0.67,-27.54,74.73,33.24
61557,0.21,-0.28,1.05,0.52,-25.30,69.50,33.19
61567,0.20,-0.26,1.09,1.42,-26.44,62.75,33.28
61577,0.10,-0.24,1.17,-0.26,-36.58,57.13,33.28
61587,0.02,-0.21,1.20,4.08,-50.02,56.03,33.19
61597,0.02,-0.20,1.12,10.14,-54.82,58.81,33.28
61607,0.07,-0.20,1.01,13.36,-44.53,61.68,33.28
61617,0.14,-0.19,0.94,13.68,-25.16,61.89,33.28
61627,0.11,-0.17,0.95,12.53,-8.73,62.15,33.19
61637,0.08,-0.14,0.98,10.08,-0.81,62.35,33.28
61647,0.04,-0.14,1.03,8.06,-3.95,61.77,33.19
61657,0.00,-0.14,1.05,8.46,-16.11,63.50,33.19
61667,0.06,-0.16,0.99,8.17,-18.78,65.74,33.28
61677,0.12,-0.18,0.97,6.17,-10.23,66.18,33.28
61687,0.17,-0.19,0.96,7.27,9.79,66.73,33.28
61697,0.21,-0.20,0.96,7.95,34.21,66.05,33.28
61707,0.17,-0.20,1.01,5.57,49.89,63.34,33.28
61717,0.08,-0.18,1.13,7.13,45.34,62.12,33.28
61727,0.05,-0.17,1.13,10.70,30.47,62.08,33.19
61737,0.08,-0.15,1.04,13.63,12.82,60.63,33.19
61747,0.17,-0.16,0.89,7.31,3.37,56.81,33.19
61757,0.14,-0.15,0.93,2.82,1.13,53.25,33.28
61767,0.10,-0.13,0.96,-1.33,-2.06,53.36,33.28
61777,0.16,-0.15,0.95,-2.90,-1.04,53.21,33.19
61787,0.19,-0.17,0.97,-4.31,-1.68,50.37,33.28
61797,0.20,-0.17,0.98,-4.89,-3.57,47.25,33.28
61807,0.21,-0.16,0.99,-5.45,-4.15,44.66,33.19
61817,0.21,-0.14,0.96,-6.00,-2.47,42.58,33.28
61827,0.22,-0.12,0.96,-5.97,1.15,39.82,33.28
61837,0.19,-0.11,0.96,-8.40,-1.42,38.32,33.19
61847,0.21,-0.12,0.97,-10.81,-1.33,38.70,33.09
61857,0.26,-0.13,0.98,-12.92,-2.31,36.90,33.28
61867,0.29,-0.15,1.01,-14.95,-2.43,33.76,33.24
61877,0.32,-0.14,1.06,-15.95,-4.64,28.06,33.28
61887,0.29,-0.15,1.10,-19.22,-12.75,21.74,33.19
61897,0.24,-0.14,1.17,-19.34,-25.28,17.21,33.28
61907,0.22,-0.13,1.17,-16.55,-34.06,15.68,33.24
61917,0.25,-0.13,1.14,-13.92,-35.16,15.16,33.19
61927,0.30,-0.13,1.11,-12.08,-28.70,13.31,33.28
61937,0.30,-0.12,1.12,-9.71,-16.53,12.72,33.28
61947,0.31,-0.13,1.10,-7.01,-4.46,12.64,33.24
61957,0.31,-0.13,1.14,-5.59,1.27,9.77,33.19
61967,0.31,-0.14,1.16,-6.99,-0.08,4.46,33.24
61977,0.25,-0.14,1.20,-7.68,-8.60,-1.10,33.24
61987,0.21,-0.12,1.18,-6.67,-15.01,-3.22,33.24
61997,0.20,-0.12,1.16,-3.56,-12.14,-3.54,33.33
62007,0.19,-0.11,1.15,-0.50,-6.58,-3.51,33.24
62017,0.19,-0.10,1.11,1.31,-1.24,-4.29,33.24
62027,0.16,-0.10,1.12,1.25,-0.46,-5.02,33.24
62037,0.14,-0.08,1.09,1.56,-2.26,-5.24,33.24
62047,0.16,-0.09,1.05,1.19,1.31,-5.76,33.24
62057,0.14,-0.09,1.05,-1.21,3.80,-7.42,33.24
62067,0.10,-0.09,1.09,-2.81,1.88,-8.12,33.14
62077,0.10,-0.08,1.09,-2.81,-0.27,-8.44,33.24
62087,0.09,-0.08,1.08,-1.97,-1.57,-9.66,33.24
62097,0.06,-0.08,1.06,-1.94,-2.11,-9.77,33.24
62107,0.05,-0.07,1.05,-1.98,0.56,-8.06,33.24
62117,0.04,-0.08,1.05,-2.18,3.57,-7.21,33.24
62127,0.05,-0.07,1.04,-2.72,4.35,-6.66,33.24
62137,0.04,-0.09,1.04,-3.18,0.81,-6.93,33.05
62147,0.07,-0.08,1.02,-4.21,-0.63,-7.04,33.24
62157,0.06,-0.08,1.03,-4.79,-0.63,-7.60,33.24
62167,0.08,-0.07,1.01,-4.06,6.55,-7.25,33.24
62177,0.07,-0.08,1.00,-4.29,15.89,-7.36,33.24
62187,0.04,-0.08,1.03,-5.21,19.21,-6.79,33.24
62197,0.00,-0.08,1.07,-5.63,17.95,-6.75,33.14
62207,-0.02,-0.09,1.09,-6.32,12.06,-5.95,33.24
62217,-0.02,-0.09,1.08,-6.17,6.64,-4.09,33.24
62227,0.01,-0.11,1.08,-5.56,4.63,-3.28,33.14
62237,0.04,-0.11,1.08,-5.15,4.12,-3.51,33.24
62247,0.04,-0.11,1.09,-4.56,2.75,-4.69,33.24
62257,0.04,-0.12,1.10,-3.77,0.34,-4.66,33.24
62267,0.06,-0.12,1.09,-2.24,-0.41,-5.79,33.14
62277,0.05,-0.11,1.04,-1.98,3.11,-6.75,33.33
62287,0.03,-0.11,1.03,-1.86,8.03,-6.06,33.24
62297,0.03,-0.10,1.04,-2.03,10.27,-4.78,33.24
62307,0.03,-0.11,1.07,-3.18,9.97,-4.95,33.14
62317,0.03,-0.11,1.07,-3.27,6.98,-5.22,33.24
62327,0.04,-0.11,1.06,-2.78,5.33,-6.82,33.24
62337,0.03,-0.10,1.02,-3.10,11.91,-6.64,33.24
62347,-0.02,-0.11,1.05,-2.34,17.91,-4.37,33.24
62357,-0.02,-0.10,1.08,-2.32,18.60,-2.53,33.24
62367,-0.02,-0.11,1.10,-2.47,15.19,-1.47,33.24
62377,-0.01,-0.12,1.11,-1.73,5.98,-1.37,33.24
62387,0.03,-0.11,1.07,-1.05,0.73,-1.47,33.24
62397,0.08,-0.10,1.03,0.17,0.24,-3.08,33.24
62407,0.09,-0.09,0.98,-2.24,3.33,-6.55,33.24
62417,0.05,-0.09,0.99,-7.30,2.06,-9.11,33.24
62427,0.00,-0.08,1.03,-11.94,4.41,-8.92,33.24
62437,-0.04,-0.08,1.11,-12.02,4.41,-6.73,33.24
62447,-0.04,-0.10,1.13,-8.63,8.03,-3.66,33.24
62457,-0.04,-0.10,1.16,-5.47,9.42,-1.54,33.24
62467,-0.03,-0.11,1.15,-1.47,8.49,0.85,33.28
62477,0.00,-0.11,1.12,0.87,7.60,1.83,33.28
62487,0.04,-0.11,1.08,0.98,6.81,0.56,33.28
62497,0.05,-0.11,1.06,0.00,5.63,-1.31,33.28
62507,0.07,-0.10,1.04,-2.02,6.53,-3.07,33.19
62517,0.05,-0.09,1.02,-3.89,8.14,-5.30,33.19
62527,0.02,-0.09,1.04,-4.60,10.32,-5.22,33.28
62537,-0.01,-0.10,1.08,-3.53,12.03,-3.95,33.19
62547,-0.02,-0.10,1.09,-2.27,14.92,-2.78,33.28
62557,-0.03,-0.10,1.12,-1.10,14.72,-1.54,33.28
62567,-0.01,-0.10,1.12,0.15,11.86,-1.48,33.19
62577,-0.01,-0.11,1.11,0.81,6.09,-2.50,33.28
62587,-0.02,-0.10,1.10,1.22,0.47,-2.58,33.19
62597,-0.01,-0.10,1.07,1.02,-2.18,-2.11,33.28
62607,-0.00,-0.09,1.04,0.63,-1.05,-1.77,33.28
62617,0.01,-0.09,1.02,-1.15,3.21,-0.24,33.19
62627,0.02,-0.08,1.03,-2.56,6.79,0.29,33.28
62637,0.04,-0.10,1.05,-5.22,7.02,-0.69,33.28
62647,0.02,-0.11,1.08,-6.53,2.96,-1.56,33.19
62657,0.02,-0.10,1.08,-6.34,-0.03,-1.94,33.19
62667,0.03,-0.11,1.09,-5.50,-1.45,-2.89,33.28
62677,0.02,-0.10,1.08,-4.38,-0.43,-2.99,33.19
62687,0.02,-0.10,1.06,-3.42,-1.19,-2.72,33.28
62697,0.02,-0.10,1.04,-3.16,-0.76,-2.60,33.28
62707,0.02,-0.09,1.04,-3.27,-0.47,-3.13,33.19
62717,0.02,-0.09,1.04,-3.98,1.15,-3.05,33.28
62727,0.02,-0.09,1.05,-3.98,3.34,-2.76,33.28
62737,0.02,-0.10,1.05,-4.03,5.05,-3.19,33.19
62747,0.01,-0.10,1.06,-4.20,4.32,-3.86,33.28
62757,-0.00,-0.09,1.04,-3.74,4.12,-4.37,33.28
62767,-0.03,-0.09,1.03,-4.15,3.13,-3.56,33.28
62777,-0.01,-0.08,1.03,-4.76,3.88,-2.41,33.28
62787,-0.00,-0.08,1.03,-6.85,5.19,-1.94,33.28
62797,-0.00,-0.09,1.04,-8.47,5.69,-2.23,33.28
62807,-0.02,-0.10,1.07,-8.61,4.18,-2.49,33.28
62817,-0.02,-0.09,1.08,-7.07,3.73,-2.35,33.19
62827,-0.04,-0.09,1.07,-5.37,3.18,-2.03,33.19
62837,-0.05,-0.09,1.07,-5.13,3.45,-0.46,33.19
62847,-0.04,-0.09,1.07,-5.53,3.48,0.93,33.28
62857,-0.02,-0.09,1.07,-5.85,3.51,1.54,33.28
62867,-0.01,-0.10,1.07,-5.83,3.92,1.91,33.28
62877,0.00,-0.10,1.07,-5.69,3.89,1.85,33.19
62887,0.01,-0.12,1.08,-5.22,3.22,0.76,33.28
62897,0.01,-0.11,1.08,-5.02,3.56,-0.05,33.19
62907,0.02,-0.12,1.07,-4.70,4.02,-0.75,33.28
62917,0.00,-0.10,1.07,-5.15,5.13,-0.63,33.33
62927,-0.01,-0.11,1.08,-5.69,5.95,-0.49,33.19
62937,-0.01,-0.11,1.09,-5.50,6.17,-0.02,33.28
62947,-0.01,-0.12,1.10,-4.61,5.68,0.12,33.19
62957,0.01,-0.12,1.09,-3.82,5.71,-0.17,33.24
62967,0.02,-0.11,1.07,-3.27,5.65,-0.87,33.09
62977,-0.00,-0.11,1.06,-3.79,4.09,-1.31,33.28
62987,-0.01,-0.10,1.07,-4.05,1.88,-2.11,33.28
62997,-0.01,-0.09,1.04,-4.14,1.08,-2.18,33.14
63007,-0.01,-0.10,1.04,-4.43,2.79,-1.68,33.19
63017,-0.01,-0.11,1.04,-5.13,5.02,-1.18,33.19
63027,-0.01,-0.10,1.04,-5.91,5.98,-1.54,33.19
63037,-0.02,-0.10,1.06,-6.18,3.08,-1.82,33.33
63047,-0.02,-0.09,1.06,-5.50,-0.37,-2.18,33.19
63057,-0.02,-0.09,1.07,-4.67,-2.76,-1.74,33.28
63067,-0.01,-0.09,1.05,-4.90,-1.86,-1.68,33.28
63077,-0.03,-0.10,1.05,-5.39,0.12,-1.05,33.33
63087,-0.02,-0.10,1.05,-5.10,0.17,-0.31,33.14
63097,-0.00,-0.10,1.06,-4.64,0.40,-0.20,33.28
63107,-0.00,-0.09,1.04,-6.00,2.20,-0.14,33.14
63117,-0.00,-0.09,1.05,-6.44,3.74,-0.52,33.14
63127,-0.00,-0.09,1.07,-6.67,4.12,-1.19,33.33
63137,-0.01,-0.10,1.05,-6.61,6.29,-0.63,33.24
63147,-0.02,-0.10,1.07,-6.50,6.76,0.23,33.24
63157,-0.01,-0.10,1.09,-6.21,6.84,0.58,33.33
63167,-0.02,-0.10,1.10,-6.50,4.93,-0.05,33.24
63177,-0.03,-0.10,1.12,-5.63,1.94,0.12,33.24
63187,-0.01,-0.11,1.10,-4.17,0.69,0.56,33.33
63197,0.01,-0.11,1.09,-3.60,0.00,-0.23,33.14
63207,0.01,-0.11,1.07,-3.56,-0.31,-1.31,33.24
63217,-0.00,-0.10,1.05,-4.67,-0.35,-0.90,33.24
63227,0.01,-0.11,1.05,-5.69,0.31,-0.89,33.14
63237,0.02,-0.11,1.07,-6.52,2.76,-1.48,33.24
63247,0.01,-0.12,1.08,-6.55,5.83,-1.22,33.24
63257,0.00,-0.12,1.09,-5.56,7.88,-0.76,33.24
63267,0.01,-0.12,1.10,-4.11,7.95,-1.24,33.24
63277,0.01,-0.13,1.10,-3.86,5.62,-2.60,33.24
63287,-0.00,-0.12,1.11,-3.30,2.18,-3.33,33.14
63297,-0.02,-0.11,1.08,-2.00,0.35,-3.02,33.24
63307,-0.02,-0.11,1.06,-2.08,1.65,-2.11,33.14
63317,-0.02,-0.11,1.03,-2.41,2.95,-0.82,33.24
63327,-0.01,-0.11,1.04,-3.54,3.59,-0.75,33.24
63337,-0.00,-0.12,1.05,-5.16,3.39,-1.30,33.24
63347,-0.00,-0.11,1.06,-5.60,2.05,-2.23,33.24
63357,-0.01,-0.12,1.07,-5.80,1.74,-1.68,33.24
63367,-0.01,-0.11,1.07,-5.18,1.73,-1.51,33.24
63377,0.01,-0.11,1.06,-4.66,3.53,-2.40,33.14
63387,-0.01,-0.11,1.06,-4.69,5.62,-2.78,33.14
63397,-0.04,-0.11,1.06,-4.41,4.12,-1.59,33.24
63407,-0.03,-0.11,1.07,-3.97,1.77,-0.40,33.24
63417,-0.01,-0.11,1.07,-4.31,0.87,-0.76,33.33
63427,-0.01,-0.11,1.08,-3.92,0.78,-1.44,33.14
63437,-0.01,-0.11,1.07,-3.51,0.79,-2.00,33.24
63447,-0.01,-0.10,1.05,-3.19,2.70,-1.25,33.24
63457,-0.01,-0.11,1.04,-3.94,4.29,-0.78,33.24
63467,-0.01,-0.11,1.04,-5.22,5.47,-0.75,33.33
63477,-0.02,-0.11,1.06,-6.05,5.95,-1.02,33.24
63487,-0.03,-0.12,1.08,-5.48,4.37,-1.39,33.33
63497,-0.03,-0.11,1.10,-4.14,4.08,-1.16,33.24
63507,-0.03,-0.11,1.10,-2.64,3.86,-0.76,33.24
63517,-0.02,-0.10,1.07,-2.05,5.16,-0.66,33.14
63527,-0.02,-0.10,1.06,-2.50,5.71,-0.38,33.24
63537,-0.03,-0.10,1.04,-3.74,4.69,-0.67,33.24
63547,-0.04,-0.10,1.05,-4.73,3.31,-0.66,33.19
63557,-0.03,-0.10,1.05,-5.56,1.80,0.06,33.28
63567,-0.03,-0.10,1.04,-6.26,2.72,0.21,33.28
63577,-0.02,-0.11,1.06,-6.41,3.60,0.81,33.28
