Timestamp,Acce_X,Acce_Y,Acce_Z,Gyro_X,Gyro_Y,Gyro_Z,Temp
23707,-0.07,-0.39,0.95,-23.16,4.92,22.14,33.57
23717,-0.06,-0.39,0.95,-24.15,5.95,22.49,33.57
23727,-0.05,-0.39,0.97,-24.82,5.34,21.86,33.57
23737,-0.04,-0.39,0.97,-26.03,4.84,20.66,33.47
23747,-0.03,-0.39,1.00,-26.60,3.27,19.25,33.57
23757,0.01,-0.40,1.00,-26.46,3.24,18.11,33.47
23767,0.03,-0.39,1.03,-26.49,1.30,16.58,33.47
23777,0.06,-0.40,1.05,-24.75,-1.54,14.27,33.57
23787,0.09,-0.39,1.05,-23.39,-4.56,10.70,33.57
23797,0.11,-0.37,1.07,-21.56,-6.75,7.83,33.47
23807,0.14,-0.38,1.07,-19.16,-7.82,5.63,33.47
23817,0.17,-0.38,1.07,-17.40,-6.89,3.66,33.47
23827,0.21,-0.39,1.06,-15.83,-3.59,1.92,33.57
23837,0.26,-0.40,1.04,-15.68,2.93,-0.98,33.57
23847,0.31,-0.42,1.05,-17.39,9.57,-8.55,33.57
23857,0.35,-0.44,1.10,-19.50,13.13,-20.72,33.47
23867,0.39,-0.49,1.18,-19.74,12.96,-37.57,33.57
23877,0.40,-0.53,1.22,-16.76,9.15,-55.65,33.57
23887,0.39,-0.46,1.21,-17.68,3.40,-70.44,33.57
23897,0.34,-0.45,1.16,-10.82,5.57,-76.31,33.47
23907,0.32,-0.48,1.13,-10.32,12.17,-77.91,33.47
23917,0.34,-0.54,1.11,-6.70,20.17,-77.94,33.47
23927,0.29,-0.59,1.10,-5.13,28.56,-79.24,33.57
23937,0.23,-0.59,1.10,-6.58,30.67,-82.00,33.47
23947,0.12,-0.60,1.17,-6.47,22.08,-85.63,33.57
23957,0.05,-0.60,1.23,1.04,10.55,-87.34,33.47
23967,0.04,-0.57,1.17,10.05,4.81,-86.31,33.47
23977,0.10,-0.59,1.15,13.79,7.56,-86.90,33.57
23987,0.13,-0.60,1.07,14.43,9.40,-91.50,33.57
23997,0.12,-0.58,1.03,12.69,22.32,-95.07,33.57
24007,0.09,-0.55,0.99,12.55,36.69,-96.26,33.47
24017,0.05,-0.50,0.96,14.87,45.01,-94.17,33.57
24027,-0.02,-0.49,0.94,15.01,45.40,-92.05,33.52
24037,-0.01,-0.47,0.92,16.75,45.77,-88.70,33.52
24047,-0.02,-0.47,0.88,18.12,46.93,-86.60,33.52
24057,-0.04,-0.46,0.89,16.56,46.63,-84.43,33.52
24067,-0.09,-0.48,0.92,15.92,46.79,-81.28,33.52
24077,-0.12,-0.49,0.95,17.08,46.23,-79.45,33.52
24087,-0.16,-0.50,1.06,17.74,42.41,-77.98,33.52
24097,-0.15,-0.51,0.99,20.06,33.07,-77.39,33.61
24107,-0.14,-0.50,0.98,20.09,31.68,-76.06,33.42
24117,-0.13,-0.52,0.97,21.44,29.07,-75.36,33.52
24127,-0.10,-0.50,0.94,21.13,28.58,-75.83,33.52
24137,-0.09,-0.48,0.87,17.69,30.81,-75.15,33.52
24147,-0.08,-0.46,0.85,12.82,36.58,-73.51,33.52
24157,-0.06,-0.45,0.83,7.30,43.98,-70.40,33.52
24167,-0.06,-0.46,0.80,3.02,51.83,-67.30,33.52
24177,-0.07,-0.46,0.79,-1.36,60.69,-64.63,33.42
24187,-0.07,-0.47,0.79,-4.05,67.83,-62.75,33.42
24197,-0.08,-0.48,0.81,-6.15,74.24,-60.81,33.57
24207,-0.10,-0.51,0.80,-6.11,81.47,-57.62,33.61
24217,0.00,-0.51,0.56,-0.38,103.16,-50.66,33.42
24227,-0.07,-0.61,0.74,-6.82,105.95,-48.76,33.52
24237,-0.05,-0.63,0.74,-8.43,126.76,-45.02,33.47
24247,-0.11,-0.64,0.82,-10.24,136.38,-42.56,33.52
24257,-0.24,-0.56,0.89,-1.77,128.17,-42.09,33.52
24267,-0.20,-0.60,0.90,1.77,120.50,-47.59,33.42
24277,-0.24,-0.61,0.92,2.92,101.86,-55.91,33.47
24287,-0.30,-0.61,0.95,8.66,87.28,-60.26,33.52
24297,-0.34,-0.62,0.95,14.56,72.90,-62.31,33.57
24307,-0.34,-0.64,0.99,20.05,59.24,-65.24,33.47
24317,-0.33,-0.64,0.96,26.49,45.66,-67.97,33.57
24327,-0.27,-0.63,0.90,31.04,37.44,-70.17,33.47
24337,-0.21,-0.61,0.84,31.19,35.44,-72.32,33.57
24347,-0.13,-0.60,0.79,29.08,40.55,-74.23,33.57
24357,-0.11,-0.60,0.76,27.94,48.24,-76.73,33.47
24367,-0.10,-0.58,0.80,25.62,57.71,-79.18,33.47
24377,-0.15,-0.59,0.84,23.85,62.15,-81.25,33.57
24387,-0.20,-0.59,0.88,23.89,60.78,-83.07,33.47
24397,-0.22,-0.59,0.92,24.64,54.69,-84.44,33.47
24407,-0.21,-0.60,0.94,27.59,48.24,-86.27,33.47
24417,-0.19,-0.62,0.95,29.39,43.65,-88.61,33.47
24427,-0.20,-0.62,0.95,31.37,40.70,-90.11,33.47
24437,-0.16,-0.63,0.97,32.76,38.08,-93.40,33.47
24447,-0.12,-0.63,0.98,33.97,36.60,-95.80,33.47
24457,-0.10,-0.63,0.98,35.21,38.79,-99.10,33.57
24467,-0.07,-0.64,0.98,37.59,40.73,-102.11,33.47
24477,-0.08,-0.65,1.00,40.72,39.77,-105.51,33.47
24487,-0.05,-0.68,1.00,44.82,38.26,-109.77,33.47
24497,-0.03,-0.67,0.98,46.98,40.03,-114.18,33.57
24507,-0.03,-0.67,0.96,48.92,42.23,-117.28,33.57
24517,-0.05,-0.65,0.93,49.30,44.03,-119.47,33.47
24527,-0.07,-0.64,0.93,49.53,43.91,-121.42,33.57
24537,-0.10,-0.64,0.91,50.50,42.75,-123.40,33.47
24547,-0.11,-0.63,0.91,51.05,39.08,-126.00,33.47
24557,-0.12,-0.62,0.90,50.92,32.66,-129.76,33.57
24567,-0.10,-0.60,0.84,48.31,32.12,-131.02,33.47
24577,-0.10,-0.60,0.82,44.18,36.44,-131.36,33.47
24587,-0.10,-0.61,0.85,40.20,39.30,-131.94,33.57
24597,-0.13,-0.62,0.88,38.63,39.28,-133.51,33.57
24607,-0.16,-0.64,0.90,39.01,35.53,-136.00,33.57
24617,-0.14,-0.64,0.91,39.51,31.40,-138.64,33.57
24627,-0.13,-0.64,0.89,40.99,29.16,-140.60,33.57
24637,-0.12,-0.63,0.86,39.62,29.42,-142.52,33.47
24647,-0.09,-0.64,0.85,36.58,30.92,-143.92,33.57
24657,-0.08,-0.64,0.82,32.93,36.29,-145.01,33.47
24667,-0.10,-0.64,0.81,29.25,42.08,-146.52,33.47
24677,-0.14,-0.64,0.86,25.66,43.15,-148.31,33.47
24687,-0.18,-0.64,0.86,24.69,40.50,-149.24,33.47
24697,-0.19,-0.64,0.87,23.82,38.06,-149.80,33.57
24707,-0.23,-0.63,0.89,23.89,33.85,-149.69,33.47
24717,-0.23,-0.62,0.88,25.51,26.82,-149.13,33.57
24727,-0.23,-0.61,0.86,26.00,22.40,-148.72,33.57
24737,-0.24,-0.61,0.88,25.42,17.83,-148.20,33.47
24747,-0.24,-0.61,0.89,24.38,11.45,-148.47,33.47
24757,-0.23,-0.62,0.90,22.02,8.98,-148.66,33.47
24767,-0.23,-0.63,0.89,22.27,6.89,-147.19,33.57
24777,-0.20,-0.64,0.90,21.63,8.70,-147.18,33.47
24787,-0.18,-0.64,0.88,21.54,15.40,-145.71,33.47
24797,-0.20,-0.60,0.83,20.43,28.64,-141.11,33.57
24807,-0.23,-0.60,0.83,18.34,39.54,-135.40,33.57
24817,-0.25,-0.58,0.82,19.63,44.03,-131.45,33.47
24827,-0.30,-0.60,0.84,17.69,40.18,-128.56,33.47
24837,-0.31,-0.63,0.88,18.81,27.07,-128.61,33.47
24847,-0.28,-0.65,0.89,20.15,14.06,-130.99,33.57
24857,-0.25,-0.65,0.90,21.19,0.90,-132.56,33.57
24867,-0.22,-0.63,0.89,23.13,-8.56,-133.44,33.57
24877,-0.17,-0.56,0.83,22.72,-12.52,-127.66,33.57
24887,-0.05,-0.56,0.73,18.02,-3.53,-118.79,33.47
24897,0.05,-0.58,0.65,11.47,16.78,-112.34,33.57
24907,0.05,-0.63,0.66,6.41,33.57,-110.03,33.47
24917,-0.04,-0.71,0.71,1.39,39.25,-111.80,33.57
24927,-0.15,-0.76,0.80,1.39,22.41,-116.35,33.47
24937,-0.22,-0.76,0.80,1.95,3.89,-125.98,33.47
24947,-0.32,-0.65,0.78,4.76,-39.86,-133.39,33.47
24957,-0.28,-0.62,0.67,5.37,-58.32,-133.01,33.47
24967,-0.23,-0.55,0.59,-1.25,-59.79,-128.98,33.57
24977,-0.21,-0.48,0.55,-11.01,-43.73,-116.63,33.57
24987,-0.23,-0.46,0.61,-19.77,-21.86,-103.57,33.57
24997,-0.28,-0.42,0.75,-27.63,-12.05,-94.41,33.47
25007,-0.32,-0.37,0.92,-26.00,-9.80,-87.60,33.47
25017,-0.39,-0.35,1.03,-23.77,-22.40,-79.66,33.57
25027,-0.39,-0.36,1.15,-20.31,-38.89,-73.60,33.47
25037,-0.32,-0.38,1.22,-16.03,-52.70,-68.20,33.57
25047,-0.23,-0.40,1.26,-12.29,-56.89,-59.50,33.57
25057,-0.11,-0.44,1.27,-7.22,-44.52,-51.74,33.57
25067,-0.06,-0.48,1.33,-3.53,-32.87,-46.27,33.57
25077,-0.00,-0.49,1.40,0.61,-28.09,-44.85,33.57
25087,0.03,-0.48,1.42,6.20,-29.08,-48.64,33.66
25097,0.03,-0.42,1.37,13.39,-31.28,-50.17,33.57
25107,0.04,-0.38,1.34,22.32,-36.56,-50.76,33.66
25117,0.09,-0.34,1.26,29.69,-41.31,-51.04,33.47
25127,0.13,-0.33,1.16,32.15,-39.86,-53.01,33.57
25137,0.12,-0.32,1.07,31.63,-31.02,-53.33,33.57
25147,0.11,-0.30,1.02,34.47,-16.98,-46.85,33.47
25157,0.14,-0.33,0.97,33.82,0.47,-40.82,33.57
25167,0.12,-0.30,0.94,27.73,18.12,-39.89,33.57
25177,0.04,-0.26,0.96,21.48,28.37,-36.44,33.47
25187,-0.25,-0.29,1.09,19.54,17.68,-22.43,33.47
25197,-0.47,-0.17,1.15,12.38,1.51,-7.48,33.47
25207,-0.50,-0.28,1.15,13.01,-31.74,-3.73,33.47
25217,-0.42,-0.27,1.06,11.59,-66.58,-2.82,33.47
25227,-0.32,-0.30,1.02,6.95,-68.60,0.82,33.47
25237,-0.20,-0.33,0.93,6.35,-64.43,4.89,33.47
25247,-0.01,-0.31,0.89,6.90,-39.66,11.11,33.38
25257,0.07,-0.30,0.85,6.63,-19.28,12.29,33.47
25267,0.09,-0.25,0.90,8.14,-1.86,12.11,33.57
25277,0.05,-0.20,0.93,4.53,1.83,10.00,33.47
25287,-0.01,-0.18,0.93,1.18,0.21,8.03,33.47
25297,-0.02,-0.20,0.99,-0.61,-7.37,6.85,33.57
25307,0.06,-0.23,1.00,-3.01,-14.02,6.00,33.57
25317,0.16,-0.27,1.03,-6.50,-11.50,4.05,33.57
25327,0.23,-0.28,1.06,-6.72,-8.73,3.01,33.57
25337,0.28,-0.30,1.03,-6.12,-1.24,2.40,33.47
25347,0.29,-0.31,1.06,-6.21,4.85,1.45,33.57
25357,0.29,-0.31,1.07,-6.49,8.69,0.35,33.47
25367,0.26,-0.29,1.06,-8.03,11.39,-1.82,33.47
25377,0.22,-0.30,1.05,-8.58,11.83,-3.63,33.47
25387,0.16,-0.30,1.04,-8.03,10.53,-4.67,33.47
25397,0.12,-0.30,1.02,-8.24,5.69,-4.05,33.57
25407,0.12,-0.32,1.03,-9.28,-0.09,-5.05,33.47
25417,0.12,-0.33,1.03,-10.64,-4.18,-5.95,33.57
25427,0.17,-0.32,0.99,-10.96,1.89,-3.56,33.57
25437,0.19,-0.33,0.98,-11.74,12.67,-1.40,33.57
25447,0.17,-0.34,1.01,-12.03,25.36,1.28,33.57
25457,0.12,-0.36,1.00,-13.44,35.85,2.09,33.47
25467,0.07,-0.36,1.05,-15.53,41.86,2.72,33.57
25477,0.04,-0.37,1.08,-18.23,42.21,2.98,33.61
25487,-0.00,-0.37,1.09,-20.26,38.76,1.77,33.52
25497,-0.05,-0.38,1.12,-22.00,32.31,-1.45,33.52
25507,-0.10,-0.38,1.15,-20.64,21.39,-4.40,33.52
25517,-0.15,-0.36,1.13,-15.68,7.76,-3.76,33.52
25527,-0.26,-0.32,1.15,-0.56,-6.06,5.97,33.52
25537,-0.30,-0.32,1.16,19.25,-15.88,20.58,33.52
25547,-0.24,-0.33,1.09,19.79,-11.36,30.24,33.61
25557,-0.26,-0.34,1.13,18.87,-14.43,34.23,33.52
25567,-0.30,-0.35,1.16,22.15,-26.44,36.23,33.52
25577,-0.30,-0.34,1.18,28.81,-44.87,37.24,33.52
25587,-0.27,-0.35,1.14,35.68,-66.99,34.93,33.52
25597,-0.19,-0.31,1.09,44.43,-89.40,35.24,33.52
25607,-0.09,-0.31,0.90,47.82,-88.64,34.08,33.52
25617,0.02,-0.16,0.70,42.55,-52.20,47.88,33.52
25627,0.06,-0.09,0.75,29.44,-15.37,63.36,33.52
25637,0.05,-0.08,0.85,17.18,0.79,73.25,33.52
25647,0.02,-0.08,0.94,4.73,1.01,75.80,33.52
25657,-0.03,-0.13,1.04,-2.70,-22.73,72.15,33.52
25667,-0.06,-0.20,1.14,-2.63,-61.68,65.82,33.52
25677,-0.02,-0.28,1.16,-0.29,-100.17,58.20,33.52
25687,0.05,-0.33,1.16,4.84,-126.06,54.20,33.47
25697,0.25,-0.36,1.07,15.44,-115.98,61.62,33.52
25707,0.44,-0.34,0.90,21.91,-62.55,76.27,33.52
25717,0.54,-0.34,0.79,17.57,12.00,89.05,33.61
25727,0.49,-0.31,0.83,6.21,83.97,96.64,33.57
25737,0.23,-0.29,0.92,-0.05,114.85,102.72,33.52
25747,-0.02,-0.30,1.08,-7.13,103.98,104.32,33.52
25757,-0.17,-0.36,1.22,-9.60,55.97,100.66,33.52
25767,-0.18,-0.40,1.22,-10.75,-4.95,92.95,33.57
25777,-0.12,-0.42,1.18,-13.88,-59.86,81.39,33.42
25787,-0.04,-0.44,1.12,-14.89,-94.49,74.37,33.42
25797,0.08,-0.47,1.01,-9.51,-97.53,76.70,33.42
25807,0.20,-0.51,0.95,-1.04,-70.76,84.37,33.57
25817,0.27,-0.54,0.91,8.15,-26.58,92.85,33.47
25827,0.21,-0.52,0.93,14.44,11.10,102.60,33.47
25837,0.12,-0.49,0.92,17.05,28.81,112.38,33.57
25847,0.05,-0.48,0.97,10.64,19.13,112.87,33.57
25857,-0.00,-0.48,1.03,3.28,-10.61,107.95,33.47
25867,-0.06,-0.51,1.06,-0.52,-46.95,102.12,33.57
25877,-0.04,-0.57,1.06,4.24,-72.02,102.00,33.47
25887,0.10,-0.64,1.01,14.05,-68.03,107.80,33.47
25897,0.24,-0.63,0.89,23.97,-27.77,118.70,33.47
25907,0.35,-0.59,0.78,27.15,42.14,133.33,33.57
25917,0.31,-0.53,0.71,26.41,108.63,146.92,33.47
25927,0.18,-0.44,0.65,15.83,167.30,157.94,33.57
25937,-0.05,-0.39,0.74,-1.89,184.50,162.81,33.57
25947,-0.31,-0.39,0.91,-20.11,151.89,158.70,33.47
25957,-0.47,-0.45,1.07,-29.39,78.00,151.10,33.47
25967,-0.49,-0.52,1.10,-27.59,-9.42,142.53,33.47
25977,-0.33,-0.59,1.00,-22.34,-75.05,134.49,33.47
25987,-0.10,-0.64,0.88,-18.43,-102.40,131.15,33.47
25997,0.13,-0.68,0.78,-14.99,-91.62,134.53,33.47
26007,0.32,-0.68,0.71,-13.76,-46.23,139.83,33.47
26017,0.34,-0.67,0.75,-16.43,2.66,146.18,33.57
26027,0.27,-0.62,0.77,-18.58,36.37,153.31,33.47
26037,0.17,-0.60,0.82,-26.14,49.27,153.82,33.57
26047,0.05,-0.62,0.91,-34.14,34.66,149.42,33.57
26057,-0.03,-0.65,0.96,-39.44,5.47,142.49,33.47
26067,-0.05,-0.66,0.94,-41.18,-22.15,138.21,33.47
26077,-0.03,-0.65,0.87,-42.93,-39.97,136.26,33.47
26087,-0.00,-0.68,0.81,-45.51,-48.26,136.21,33.57
26097,0.08,-0.77,0.82,-44.53,-47.33,135.36,33.47
26107,0.10,-0.81,0.87,-37.88,-46.85,131.66,33.47
26117,0.09,-0.81,0.87,-33.92,-37.73,131.07,33.57
26127,0.05,-0.80,0.89,-27.69,-39.37,131.10,33.57
26137,0.04,-0.76,0.85,-26.03,-43.42,129.73,33.52
26147,0.03,-0.73,0.83,-29.48,-48.69,127.68,33.52
26157,0.02,-0.72,0.80,-33.13,-50.55,127.53,33.42
26167,-0.01,-0.70,0.78,-36.60,-48.95,129.05,33.42
26177,-0.01,-0.69,0.76,-39.24,-46.14,131.80,33.61
26187,-0.02,-0.68,0.74,-40.41,-42.92,134.70,33.61
26197,-0.00,-0.72,0.73,-40.73,-39.79,136.44,33.52
26207,0.04,-0.77,0.79,-40.78,-40.23,132.60,33.52
26217,0.05,-0.81,0.84,-39.10,-36.34,126.44,33.42
26227,0.05,-0.83,0.89,-33.66,-30.24,119.83,33.52
26237,-0.00,-0.81,0.92,-31.34,-23.42,114.43,33.52
26247,-0.11,-0.76,0.96,-29.68,-22.75,113.11,33.42
26257,-0.19,-0.76,0.98,-27.34,-28.75,115.22,33.52
26267,-0.18,-0.76,0.96,-26.20,-36.34,117.02,33.52
26277,-0.14,-0.79,0.99,-28.56,-44.38,114.55,33.52
26287,-0.05,-0.83,1.04,-29.28,-51.42,108.11,33.52
26297,-0.03,-0.86,1.09,-28.15,-51.62,102.37,33.42
26307,-0.07,-0.88,1.17,-22.98,-53.36,98.81,33.52
26317,-0.07,-0.90,1.20,-10.64,-59.54,95.69,33.52
26327,-0.05,-0.88,1.16,1.57,-65.54,91.47,33.52
26337,-0.04,-0.81,1.04,7.60,-68.12,88.03,33.47
26347,-0.04,-0.72,0.94,9.51,-69.98,88.09,33.52
26357,-0.05,-0.64,0.87,11.83,-78.55,89.22,33.52
26367,-0.04,-0.60,0.78,10.95,-86.84,91.05,33.52
26377,-0.02,-0.58,0.72,9.21,-93.11,93.53,33.47
26387,0.03,-0.56,0.66,7.97,-93.71,95.54,33.52
26397,0.09,-0.54,0.61,4.18,-85.57,98.09,33.42
26407,0.17,-0.53,0.59,-4.27,-71.80,100.14,33.52
26417,0.25,-0.53,0.62,-13.76,-53.97,101.53,33.47
26427,0.28,-0.58,0.70,-24.21,-30.00,101.34,33.42
26437,0.24,-0.64,0.80,-30.69,-10.98,99.95,33.42
26447,0.21,-0.70,0.93,-30.73,-4.63,96.37,33.52
26457,0.14,-0.73,0.99,-26.24,-10.14,88.96,33.57
26467,0.09,-0.73,1.03,-18.27,-20.38,81.25,33.52
26477,0.03,-0.69,1.01,-10.72,-32.38,75.89,33.42
26487,0.04,-0.63,0.95,-4.11,-43.02,73.07,33.47
26497,0.09,-0.56,0.87,-4.09,-43.79,72.37,33.47
26507,0.11,-0.55,0.86,-7.22,-40.23,71.69,33.57
26517,0.11,-0.53,0.83,-9.01,-34.95,70.49,33.47
26527,0.09,-0.50,0.82,-10.79,-28.90,71.33,33.47
26537,0.07,-0.49,0.81,-14.49,-25.57,71.19,33.47
26547,0.03,-0.48,0.81,-19.97,-22.95,71.54,33.47
26557,-0.00,-0.48,0.80,-24.44,-21.31,73.92,33.47
26567,0.00,-0.50,0.79,-27.48,-18.75,77.59,33.66
26577,0.01,-0.51,0.81,-29.21,-14.49,80.46,33.57
26587,0.01,-0.54,0.81,-26.55,-11.05,83.95,33.47
26597,0.03,-0.53,0.81,-25.59,-2.41,87.91,33.47
26607,0.04,-0.53,0.80,-26.61,6.53,90.66,33.57
26617,0.06,-0.53,0.80,-29.11,17.85,91.11,33.57
26627,0.09,-0.53,0.79,-32.60,27.68,89.22,33.47
26637,0.10,-0.56,0.81,-39.34,37.51,83.71,33.38
26647,0.05,-0.60,0.88,-43.59,39.77,76.38,33.57
26657,-0.08,-0.64,0.98,-41.16,34.09,70.23,33.57
26667,-0.14,-0.65,1.01,-33.80,24.52,66.47,33.47
26677,-0.17,-0.64,1.00,-28.27,15.60,62.96,33.47
26687,-0.21,-0.62,1.01,-24.18,3.88,59.07,33.47
26697,-0.22,-0.61,1.01,-20.85,-9.74,56.49,33.47
26707,-0.21,-0.60,0.99,-18.21,-23.11,54.35,33.57
26717,-0.18,-0.62,1.01,-16.29,-36.47,50.67,33.57
26727,-0.14,-0.63,0.99,-14.46,-48.96,46.17,33.47
26737,-0.11,-0.62,0.97,-12.64,-61.02,39.82,33.47
26747,-0.08,-0.59,0.94,-10.95,-69.11,35.01,33.47
26757,-0.06,-0.56,0.90,-8.47,-69.82,35.95,33.38
26767,-0.01,-0.56,0.90,-6.17,-63.59,40.31,33.47
26777,0.09,-0.57,0.90,-4.11,-50.87,43.92,33.38
26787,0.13,-0.60,0.92,-5.27,-37.73,43.45,33.52
26797,0.14,-0.61,0.93,-4.05,-28.67,40.84,33.42
26807,0.12,-0.65,0.97,-1.69,-25.10,36.26,33.42
26817,0.03,-0.64,1.00,1.28,-25.30,31.31,33.52
26827,0.02,-0.61,1.00,3.74,-33.83,26.70,33.42
26837,0.01,-0.56,0.98,5.33,-44.81,25.74,33.52
26847,0.06,-0.51,0.91,1.91,-46.41,27.36,33.42
26857,0.14,-0.52,0.90,-3.11,-43.66,29.98,33.42
26867,0.23,-0.52,0.89,-11.18,-23.34,32.46,33.42
26877,0.28,-0.54,0.94,-12.32,-7.71,31.92,33.52
26887,0.28,-0.59,1.00,-9.94,9.47,27.97,33.52
26897,0.22,-0.62,1.10,-5.59,15.65,20.66,33.52
26907,0.11,-0.63,1.16,3.34,12.35,12.24,33.52
26917,0.02,-0.61,1.13,13.13,2.58,6.38,33.42
26927,-0.03,-0.58,1.10,21.85,-9.04,1.97,33.52
26937,-0.04,-0.57,1.05,26.29,-19.95,-3.51,33.52
26947,-0.05,-0.54,0.98,30.44,-28.17,-6.18,33.52
26957,-0.04,-0.48,0.88,32.73,-27.85,-4.81,33.52
26967,-0.03,-0.44,0.83,30.66,-20.21,-3.31,33.42
26977,-0.08,-0.41,0.81,27.10,-15.28,-1.56,33.52
26987,-0.10,-0.37,0.78,23.48,-9.15,2.66,33.42
26997,-0.12,-0.35,0.78,18.82,-2.06,8.35,33.52
27007,-0.11,-0.36,0.80,13.18,5.65,13.94,33.42
27017,-0.08,-0.40,0.84,6.60,12.56,17.36,33.42
27027,-0.05,-0.41,0.89,1.86,16.67,19.44,33.57
27037,-0.02,-0.43,0.93,-0.03,19.92,19.18,33.42
27047,-0.04,-0.47,0.99,-1.74,17.71,16.34,33.52
27057,-0.07,-0.49,1.03,0.09,12.78,13.24,33.52
27067,-0.09,-0.49,1.05,3.10,8.41,12.00,33.47
27077,-0.08,-0.52,1.06,5.98,4.43,11.02,33.52
27087,-0.05,-0.53,1.04,9.34,2.60,8.00,33.52
27097,-0.06,-0.50,1.02,13.33,5.15,7.85,33.52
27107,-0.05,-0.48,0.99,15.65,12.98,10.52,33.47
27117,-0.06,-0.47,0.99,16.21,21.42,12.41,33.47
27127,-0.10,-0.46,1.01,16.15,25.54,12.76,33.47
27137,-0.14,-0.42,1.00,15.31,25.45,13.50,33.47
27147,-0.15,-0.39,0.96,11.27,22.05,12.76,33.47
27157,-0.18,-0.37,0.96,4.75,15.30,11.77,33.47
27167,-0.17,-0.37,0.95,-0.95,10.63,12.53,33.47
27177,-0.16,-0.42,0.98,-4.29,6.70,13.59,33.47
27187,-0.08,-0.44,0.99,-2.55,10.64,15.60,33.57
27197,-0.05,-0.47,1.03,-0.76,18.18,15.24,33.47
27207,-0.06,-0.45,1.06,2.67,24.18,15.33,33.47
27217,-0.09,-0.42,1.07,4.32,25.42,15.91,33.47
27227,-0.13,-0.41,1.07,4.63,21.51,14.99,33.47
27237,-0.16,-0.39,1.07,2.84,9.22,10.85,33.57
27247,-0.19,-0.37,1.04,-1.11,-7.83,7.13,33.47
27257,-0.18,-0.35,0.99,-6.02,-22.78,5.92,33.38
27267,-0.12,-0.35,0.96,-11.08,-34.44,5.95,33.38
27277,-0.04,-0.38,0.95,-13.51,-40.79,6.34,33.47
27287,0.04,-0.44,0.96,-14.26,-40.95,5.79,33.47
27297,0.12,-0.49,0.98,-10.87,-35.08,4.18,33.57
27307,0.17,-0.54,1.02,-5.71,-26.67,0.35,33.47
27317,0.18,-0.55,1.02,-2.03,-13.82,-4.99,33.57
27327,0.11,-0.53,1.03,0.29,-7.13,-10.35,33.47
27337,0.03,-0.47,1.00,2.44,-5.27,-12.09,33.47
27347,-0.03,-0.44,0.98,1.80,-3.73,-11.08,33.47
27357,-0.07,-0.41,0.97,-1.22,-2.87,-11.01,33.47
27367,-0.10,-0.42,0.98,-3.98,-1.28,-9.71,33.47
27377,-0.13,-0.43,1.00,-4.29,-1.62,-8.21,33.47
27387,-0.14,-0.45,1.04,-2.75,-3.76,-7.63,33.47
27397,-0.16,-0.47,1.07,-0.34,-8.56,-7.51,33.47
27407,-0.16,-0.47,1.06,3.36,-13.66,-7.42,33.38
27417,-0.14,-0.46,1.06,7.54,-18.79,-7.10,33.57
27427,-0.10,-0.44,1.01,9.25,-20.40,-6.96,33.47
27437,-0.06,-0.43,0.99,8.11,-18.61,-7.77,33.57
27447,-0.06,-0.41,0.95,7.59,-16.70,-8.44,33.57
27457,-0.06,-0.39,0.94,6.61,-12.90,-7.80,33.47
27467,-0.06,-0.38,0.93,4.52,-10.49,-7.57,33.47
27477,-0.07,-0.39,0.94,2.55,-11.13,-8.27,33.52
27487,-0.07,-0.38,0.93,0.63,-12.09,-8.90,33.42
27497,-0.06,-0.38,0.93,-0.87,-12.09,-8.84,33.52
27507,-0.04,-0.39,0.93,-2.38,-10.24,-8.85,33.42
27517,-0.05,-0.40,0.95,-4.24,-6.03,-8.64,33.42
27527,-0.07,-0.42,0.98,-4.47,-3.63,-8.26,33.52
27537,-0.09,-0.42,0.99,-2.61,-3.28,-7.47,33.42
27547,-0.10,-0.43,1.02,1.04,-5.44,-6.63,33.52
27557,-0.10,-0.44,1.01,4.44,-8.46,-5.74,33.61
27567,-0.09,-0.42,0.98,6.35,-11.66,-5.56,33.52
27577,-0.07,-0.39,0.94,6.31,-12.29,-5.16,33.52
27587,-0.06,-0.38,0.91,4.23,-12.15,-4.92,33.52
27597,-0.05,-0.39,0.91,1.10,-11.65,-5.94,33.52
27607,-0.04,-0.38,0.90,-2.52,-8.87,-6.40,33.52
27617,-0.06,-0.36,0.92,-4.12,-4.98,-4.79,33.42
27627,-0.07,-0.37,0.94,-4.38,1.66,-1.19,33.42
27637,-0.06,-0.39,0.96,-4.87,7.47,1.69,33.52
27647,-0.08,-0.41,0.98,-4.89,10.18,3.21,33.52
27657,-0.09,-0.41,1.01,-4.12,7.68,3.82,33.52
27667,-0.09,-0.41,1.01,-3.63,2.12,3.48,33.52
27677,-0.08,-0.41,1.00,-4.11,-3.94,2.95,33.52
27687,-0.05,-0.39,0.97,-4.70,-7.60,2.56,33.52
27697,-0.03,-0.39,0.96,-6.67,-9.08,1.76,33.42
27707,0.01,-0.41,0.95,-8.17,-9.10,0.29,33.61
27717,0.02,-0.41,0.94,-10.52,-6.93,-0.61,33.57
27727,0.02,-0.42,0.96,-11.91,-4.70,-1.51,33.52
27737,0.02,-0.43,0.98,-11.85,-2.31,-2.31,33.42
27747,0.01,-0.44,0.98,-9.86,1.62,-2.24,33.61
27757,0.00,-0.46,1.00,-8.03,5.97,-1.62,33.57
27767,-0.02,-0.45,1.02,-6.15,8.14,-1.74,33.52
27777,-0.03,-0.45,1.01,-4.75,7.53,-2.26,33.52
27787,-0.07,-0.44,1.02,-3.27,3.83,-3.16,33.52
27797,-0.07,-0.42,1.00,-2.02,0.27,-3.22,33.47
27807,-0.05,-0.40,0.97,-2.21,-1.01,-3.25,33.42
27817,-0.03,-0.40,0.95,-4.00,0.79,-3.42,33.61
27827,-0.02,-0.40,0.94,-6.47,4.38,-2.76,33.52
27837,-0.03,-0.41,0.95,-8.50,7.77,-2.78,33.47
27847,-0.04,-0.42,0.97,-9.30,7.65,-3.36,33.57
27857,-0.07,-0.41,0.98,-9.92,4.34,-3.65,33.47
27867,-0.09,-0.42,0.98,-8.67,-0.06,-3.76,33.57
27877,-0.08,-0.43,0.98,-8.20,-2.98,-2.93,33.47
27887,-0.07,-0.44,0.99,-5.54,-3.71,-1.83,33.38
27897,-0.06,-0.45,0.98,-3.57,-1.50,-0.67,33.57
27907,-0.06,-0.44,0.98,-1.95,-1.01,0.12,33.57
27917,-0.06,-0.43,0.96,-1.47,-3.51,-0.02,33.47
27927,-0.06,-0.43,0.96,-1.54,-9.63,-2.05,33.47
27937,-0.04,-0.43,0.94,-2.21,-16.64,-4.38,33.57
27947,-0.03,-0.43,0.92,-1.65,-23.94,-6.55,33.47
27957,-0.00,-0.42,0.89,-1.28,-29.77,-8.50,33.47
27967,0.03,-0.41,0.86,-1.88,-32.00,-10.70,33.57
27977,0.06,-0.38,0.83,-3.83,-30.34,-11.82,33.47
27987,0.09,-0.37,0.81,-6.55,-20.79,-10.37,33.47
27997,0.11,-0.38,0.82,-11.42,-6.24,-8.95,33.57
28007,0.09,-0.41,0.88,-14.26,8.06,-7.13,33.47
28017,0.03,-0.42,0.94,-14.46,19.04,-5.18,33.57
28027,-0.02,-0.43,0.99,-13.19,21.97,-4.12,33.47
28037,-0.06,-0.42,1.03,-12.47,18.56,-4.14,33.47
28047,-0.08,-0.43,1.04,-11.66,11.60,-5.57,33.47
28057,-0.08,-0.44,1.06,-10.38,4.02,-7.18,33.57
28067,-0.09,-0.44,1.06,-9.30,-1.53,-7.86,33.47
28077,-0.10,-0.44,1.05,-8.14,-4.02,-7.45,33.57
28087,-0.08,-0.43,1.04,-7.76,-4.44,-6.18,33.57
28097,-0.06,-0.42,1.04,-9.13,-3.59,-4.92,33.47
28107,-0.07,-0.43,1.05,-9.47,-3.51,-3.71,33.57
28117,-0.05,-0.43,1.03,-9.04,-2.38,-2.17,33.57
28127,-0.03,-0.43,1.01,-8.43,0.27,-0.34,33.47
28137,-0.03,-0.43,1.01,-9.30,3.10,0.76,33.57
28147,-0.03,-0.41,1.00,-10.66,4.09,1.98,33.47
28157,-0.03,-0.43,1.02,-10.49,3.19,3.01,33.47
28167,-0.02,-0.44,1.03,-10.79,1.30,2.76,33.47
28177,-0.01,-0.45,1.04,-10.41,-1.33,1.74,33.47
28187,-0.00,-0.43,1.02,-10.02,-2.47,1.91,33.47
28197,0.01,-0.45,1.02,-9.34,-1.85,1.98,33.38
28207,0.03,-0.47,1.03,-7.76,-0.15,2.12,33.47
28217,0.04,-0.46,1.02,-6.64,2.00,1.97,33.57
28227,0.03,-0.45,1.02,-5.63,1.63,1.02,33.52
28237,0.04,-0.45,1.00,-4.96,-0.17,-0.41,33.52
28247,0.04,-0.45,1.00,-3.83,-2.18,-1.18,33.52
28257,0.06,-0.44,0.97,-2.29,-3.08,-2.66,33.42
28267,0.07,-0.44,0.95,-3.57,-1.92,-4.76,33.52
28277,0.08,-0.43,0.93,-4.87,-0.05,-5.47,33.52
28287,0.08,-0.43,0.92,-5.59,4.46,-4.99,33.42
28297,0.08,-0.44,0.92,-6.08,8.08,-4.75,33.42
28307,0.09,-0.44,0.91,-6.50,10.98,-5.54,33.52
28317,0.08,-0.45,0.90,-5.45,13.88,-6.64,33.61
28327,0.07,-0.44,0.91,-4.14,15.66,-7.42,33.42
28337,0.06,-0.42,0.89,-3.59,14.93,-8.61,33.61
28347,0.07,-0.42,0.89,-4.08,12.24,-11.25,33.42
28357,0.08,-0.42,0.90,-5.82,9.31,-15.97,33.52
28367,0.05,-0.42,0.92,-7.40,8.79,-19.50,33.42
28377,-0.00,-0.44,0.95,-6.21,8.24,-20.26,33.42
28387,-0.03,-0.46,0.98,-4.40,8.17,-19.28,33.52
28397,-0.07,-0.45,1.00,-3.18,7.40,-17.79,33.52
28407,-0.10,-0.45,1.02,-2.67,3.42,-15.86,33.52
28417,-0.10,-0.46,1.01,-2.31,-1.22,-15.08,33.52
28427,-0.08,-0.47,1.03,-3.27,-5.86,-15.39,33.52
28437,-0.08,-0.47,1.03,-2.72,-9.54,-15.68,33.52
28447,-0.08,-0.47,1.03,-0.98,-11.68,-14.34,33.52
28457,-0.08,-0.47,1.04,0.34,-14.78,-13.02,33.42
28467,-0.02,-0.51,1.00,3.28,-11.36,-12.14,33.52
28477,-0.05,-0.46,1.01,-1.22,-11.36,-11.08,33.52
28487,-0.04,-0.45,1.00,-2.41,-7.88,-9.79,33.57
28497,-0.04,-0.45,1.00,-4.69,-5.48,-9.10,33.52
28507,-0.03,-0.44,1.00,-4.78,-1.68,-7.37,33.61
28517,-0.04,-0.45,1.00,-5.57,2.79,-5.77,33.52
28527,-0.05,-0.45,1.00,-6.61,5.76,-4.66,33.47
28537,-0.06,-0.46,1.02,-6.98,7.22,-3.73,33.52
28547,-0.08,-0.46,1.04,-6.64,6.56,-3.10,33.52
28557,-0.08,-0.48,1.05,-4.82,5.88,-2.03,33.52
28567,-0.09,-0.47,1.04,-3.92,5.37,-0.72,33.57
28577,-0.07,-0.46,1.02,-2.61,4.73,1.28,33.52
28587,-0.06,-0.45,1.00,-2.95,3.66,2.34,33.42
28597,-0.04,-0.46,0.99,-3.59,2.37,2.79,33.57
28607,-0.03,-0.47,0.99,-4.35,0.11,1.98,33.47
28617,-0.03,-0.46,0.98,-5.24,-0.64,2.09,33.47
28627,-0.03,-0.46,0.98,-4.75,-0.99,2.53,33.47
28637,-0.03,-0.47,0.98,-3.11,-0.29,3.62,33.47
28647,-0.03,-0.48,0.99,-1.86,0.99,4.29,33.57
28657,-0.03,-0.47,0.99,-1.30,0.85,5.39,33.57
28667,-0.03,-0.45,0.97,-2.11,0.15,6.43,33.47
28677,-0.02,-0.45,0.96,-3.80,-0.70,6.82,33.38
28687,-0.01,-0.45,0.97,-4.98,-1.33,6.52,33.57
28697,-0.00,-0.45,0.96,-5.97,0.08,7.04,33.57
28707,0.01,-0.45,0.96,-6.84,0.92,6.81,33.57
