Timestamp,Acce_X,Acce_Y,Acce_Z,Gyro_X,Gyro_Y,Gyro_Z,Temp
47087,-0.18,-0.22,1.03,-6.31,-1.27,1.27,30.93
47097,-0.17,-0.22,1.03,-5.31,-1.98,1.86,31.02
47107,-0.15,-0.22,1.03,-5.42,-1.71,1.73,30.98
47117,-0.14,-0.22,1.02,-6.08,-0.40,0.82,30.98
47127,-0.15,-0.21,1.03,-6.29,-0.37,0.11,31.07
47137,-0.14,-0.22,1.02,-5.97,-0.32,-0.20,30.98
47147,-0.14,-0.22,1.03,-6.50,0.53,-0.53,30.98
47157,-0.15,-0.22,1.04,-6.61,0.64,-0.81,30.98
47167,-0.14,-0.23,1.04,-6.58,0.84,-0.87,31.02
47177,-0.14,-0.23,1.05,-6.55,0.50,-0.98,31.02
47187,-0.15,-0.23,1.06,-4.99,-1.08,-1.40,31.02
47197,-0.13,-0.23,1.06,-3.66,-2.56,-1.80,31.02
47207,-0.12,-0.23,1.04,-2.79,-2.87,-2.00,31.02
47217,-0.11,-0.23,1.02,-3.97,-1.71,-2.08,30.93
47227,-0.10,-0.24,1.01,-4.31,-1.05,-2.38,31.07
47237,-0.08,-0.24,1.02,-5.33,1.01,-3.65,30.98
47247,-0.07,-0.25,1.02,-5.48,0.27,-5.25,30.98
47257,-0.05,-0.26,1.01,-6.35,1.82,-6.89,31.07
47267,-0.04,-0.28,1.03,-7.25,2.87,-9.54,30.93
47277,-0.05,-0.28,1.05,-7.19,1.95,-12.85,30.88
47287,-0.03,-0.28,1.04,-7.16,4.26,-15.98,30.98
47297,-0.04,-0.27,1.06,-7.34,4.47,-19.36,31.02
47307,-0.02,-0.29,1.05,-5.79,3.22,-20.69,31.02
47317,0.01,-0.27,1.03,-5.44,5.77,-23.15,31.02
47327,0.04,-0.28,1.03,-6.75,8.37,-27.33,31.02
47337,0.04,-0.26,1.03,-8.27,6.82,-33.59,31.02
47347,0.02,-0.27,1.04,-10.92,3.24,-38.73,31.02
47357,0.01,-0.28,1.08,-12.84,-3.19,-42.05,30.98
47367,0.04,-0.29,1.10,-13.13,-9.37,-46.03,30.98
47377,0.08,-0.30,1.08,-13.34,-14.15,-49.22,30.98
47387,0.15,-0.31,1.10,-13.88,-19.33,-52.64,31.07
47397,0.24,-0.33,1.10,-14.14,-18.56,-60.09,31.12
47407,0.29,-0.33,1.12,-14.89,-15.50,-69.48,30.98
47417,0.33,-0.34,1.12,-15.22,-10.98,-76.85,31.02
47427,0.38,-0.36,1.09,-15.08,1.86,-81.11,31.02
47437,0.44,-0.38,1.13,-16.38,20.15,-85.51,30.93
47447,0.46,-0.41,1.21,-18.05,34.78,-96.14,30.93
47457,0.40,-0.45,1.31,-15.34,40.27,-106.00,30.93
47467,0.36,-0.48,1.36,-9.11,39.91,-112.69,30.93
47477,0.35,-0.51,1.39,0.18,35.94,-118.53,31.02
47487,0.34,-0.55,1.39,10.46,30.92,-123.53,30.98
47497,0.40,-0.56,1.32,22.02,31.05,-127.80,30.98
47507,0.44,-0.57,1.22,31.11,39.16,-131.97,30.98
47517,0.49,-0.58,1.12,37.05,48.18,-138.06,31.07
47527,0.55,-0.58,1.03,38.78,56.52,-149.56,31.12
47537,0.53,-0.60,0.99,33.42,65.71,-163.54,30.98
47547,0.45,-0.64,1.01,29.27,68.98,-175.48,30.88
47557,0.41,-0.68,1.02,27.69,67.16,-185.19,30.93
47567,0.41,-0.72,0.99,27.91,67.50,-192.96,31.02
47577,0.41,-0.74,0.95,30.09,72.95,-198.78,31.02
47587,0.42,-0.76,0.89,33.51,83.15,-204.03,31.12
47597,0.40,-0.80,0.88,32.52,86.69,-214.40,30.93
47607,0.31,-0.83,0.88,29.83,79.74,-223.74,30.93
47617,0.27,-0.85,0.90,27.95,73.42,-232.08,31.02
47627,0.25,-0.89,0.90,28.72,67.45,-239.42,30.98
47637,0.25,-0.93,0.86,29.15,69.27,-243.39,30.98
47647,0.26,-0.96,0.80,29.10,74.31,-247.80,30.98
47657,0.25,-0.98,0.79,28.67,74.24,-253.82,31.07
47667,0.25,-1.01,0.74,27.04,65.80,-262.34,30.98
47677,0.21,-1.02,0.72,20.73,56.44,-272.52,30.98
47687,0.15,-1.05,0.74,15.57,43.79,-281.47,30.93
47697,0.11,-1.08,0.75,11.51,34.61,-288.60,30.93
47707,0.08,-1.11,0.75,7.95,26.31,-293.37,30.93
47717,0.09,-1.16,0.76,4.26,25.85,-299.01,31.02
47727,0.05,-1.21,0.79,0.41,33.04,-304.14,31.02
47737,-0.11,-1.20,0.86,1.08,32.64,-303.19,31.02
47747,-0.16,-1.19,0.82,5.42,28.43,-296.84,30.98
47757,-0.16,-1.19,0.76,4.47,30.63,-291.59,30.98
47767,-0.16,-1.20,0.79,1.82,34.72,-289.28,30.98
47777,-0.24,-1.18,0.80,-0.27,39.74,-285.30,30.88
47787,-0.31,-1.17,0.81,-0.32,44.98,-278.17,31.02
47797,-0.32,-1.16,0.83,0.41,46.47,-272.21,30.98
47807,-0.31,-1.17,0.84,3.83,52.95,-268.11,31.02
47817,-0.37,-1.16,0.84,8.26,57.76,-262.47,31.02
47827,-0.39,-1.12,0.80,11.68,59.50,-256.18,30.93
47837,-0.39,-1.10,0.76,11.16,60.56,-249.10,31.02
47847,-0.35,-1.09,0.76,8.44,64.79,-244.82,31.02
47857,-0.36,-1.10,0.78,8.49,73.69,-239.39,31.02
47867,-0.41,-1.06,0.81,11.76,82.31,-228.61,31.02
47877,-0.43,-1.00,0.80,17.57,90.03,-216.26,30.98
47887,-0.41,-0.97,0.75,20.99,85.71,-204.11,30.98
47897,-0.32,-0.96,0.72,18.64,96.43,-196.92,31.07
47907,-0.39,-0.93,0.82,19.28,93.82,-192.89,31.07
47917,-0.44,-0.88,0.79,19.95,70.23,-188.93,30.93
47927,-0.42,-0.82,0.73,15.73,54.08,-185.15,30.98
47937,-0.39,-0.81,0.74,10.21,46.11,-180.56,31.07
47947,-0.40,-0.80,0.83,11.10,48.46,-173.31,30.93
47957,-0.43,-0.76,0.79,14.26,46.50,-161.74,31.02
47967,-0.42,-0.74,0.71,10.76,55.21,-149.83,31.02
47977,-0.45,-0.70,0.82,-1.82,64.35,-144.93,31.02
47987,-0.59,-0.77,0.95,-14.14,66.52,-143.22,31.02
47997,-1.12,-0.75,1.36,-14.95,55.31,-142.17,31.02
48007,-0.31,-0.60,1.03,17.24,89.68,-110.92,31.07
48017,-0.51,-0.52,1.01,57.02,66.40,-88.23,31.07
48027,-0.49,-0.48,0.82,48.85,47.27,-94.00,31.07
48037,-0.45,-0.37,0.76,36.02,44.66,-90.12,30.98
48047,-0.49,-0.31,0.83,33.89,46.21,-77.98,30.93
48057,-0.38,-0.27,0.68,23.36,42.35,-70.96,31.07
48067,-0.26,-0.26,0.69,9.79,56.73,-63.85,30.98
48077,-0.32,-0.31,0.90,11.40,56.98,-65.22,31.02
48087,-0.38,-0.32,0.92,12.11,74.11,-60.05,30.93
48097,-0.57,-0.31,1.00,13.94,59.50,-57.97,31.02
48107,-0.55,-0.30,1.00,17.59,61.42,-47.69,31.02
48117,-0.69,-0.27,1.00,19.62,32.32,-40.76,31.02
48127,-0.67,-0.25,0.95,25.69,1.16,-32.09,31.02
48137,-0.54,-0.22,0.95,25.89,-6.21,-22.85,31.07
48147,-0.33,-0.22,0.93,19.10,-3.15,-19.98,30.98
48157,-0.19,-0.22,0.86,18.29,-0.18,-17.71,31.07
48167,-0.12,-0.21,0.92,19.01,10.14,-14.41,30.98
48177,-0.13,-0.21,0.89,16.32,7.62,-15.33,30.93
48187,-0.11,-0.22,0.85,3.63,4.20,-20.79,30.98
48197,-0.08,-0.24,0.87,-6.76,8.12,-26.49,31.07
48207,-0.11,-0.26,0.92,-12.87,16.66,-28.96,31.02
48217,-0.16,-0.27,0.98,-12.38,17.15,-27.77,31.02
48227,-0.23,-0.29,1.01,-7.83,12.61,-27.11,30.93
48237,-0.22,-0.28,0.98,-8.15,11.18,-24.73,30.93
48247,-0.28,-0.29,0.96,-3.36,5.47,-20.72,31.02
48257,-0.31,-0.29,0.96,-4.41,0.58,-14.52,30.93
48267,-0.28,-0.31,0.96,-5.47,0.29,-9.65,30.98
48277,-0.27,-0.32,0.94,-6.43,0.24,-7.28,30.98
48287,-0.26,-0.32,0.96,-6.89,1.08,-3.62,30.98
48297,-0.25,-0.32,1.01,-1.86,-4.81,-0.75,30.98
48307,-0.19,-0.32,0.99,-1.16,-13.33,-0.24,30.93
48317,-0.12,-0.30,1.00,-2.56,-15.04,-0.20,31.07
48327,-0.12,-0.32,0.99,-2.08,-19.51,-1.79,31.07
48337,-0.07,-0.31,0.98,-1.91,-22.98,-2.98,31.02
48347,-0.11,-0.32,0.97,-5.44,-23.71,-4.08,31.12
48357,-0.07,-0.32,1.00,-2.08,-27.94,-4.40,30.84
48367,-0.06,-0.31,1.02,-2.40,-30.20,-2.96,31.02
48377,-0.07,-0.29,1.04,-1.22,-30.76,-1.42,31.02
48387,-0.06,-0.28,1.03,-0.03,-27.40,-0.17,30.98
48397,-0.06,-0.27,1.01,-1.74,-25.25,1.76,30.98
48407,-0.07,-0.28,1.03,-5.25,-20.99,2.52,30.98
48417,-0.07,-0.29,1.11,1.30,-21.51,4.46,31.07
48427,-0.11,-0.30,1.08,5.25,-22.11,6.82,30.98
48437,-0.08,-0.26,1.06,2.69,-14.53,10.18,31.02
48447,-0.04,-0.27,1.05,5.94,-7.13,12.56,30.98
48457,-0.11,-0.26,1.07,5.27,-10.00,14.31,31.02
48467,-0.12,-0.28,1.08,4.98,-5.24,17.21,31.02
48477,-0.19,-0.25,1.08,3.65,-3.77,21.22,31.02
48487,-0.18,-0.26,1.07,8.99,-7.62,24.79,31.02
48497,-0.12,-0.19,1.06,-0.06,18.40,33.22,30.93
48507,-0.18,-0.17,0.97,-2.32,-1.45,33.88,31.07
48517,-0.21,-0.24,0.98,-1.63,-13.53,34.37,30.98
48527,-0.19,-0.24,0.97,-6.11,-19.01,36.12,31.07
48537,-0.23,-0.24,0.98,-6.06,-20.00,37.04,30.88
48547,-0.18,-0.21,0.86,-2.26,-11.66,39.11,31.07
48557,-0.18,-0.21,0.73,-14.64,23.44,46.43,30.98
48567,-0.24,-0.20,0.78,-22.47,41.36,53.47,30.93
48577,-0.28,-0.19,0.81,-31.57,48.81,60.52,31.02
48587,-0.31,-0.21,0.76,-37.16,61.71,70.27,30.93
48597,-0.31,-0.24,0.80,-47.16,63.66,74.98,30.93
48607,-0.37,-0.29,0.90,-51.66,44.58,74.37,31.02
48617,-0.43,-0.31,0.98,-53.85,8.66,71.48,30.93
48627,-0.42,-0.32,0.97,-54.79,-30.58,69.37,31.07
48637,-0.46,-0.37,0.99,-52.11,-68.31,66.66,30.98
48647,-0.34,-0.39,0.92,-47.82,-85.31,69.44,30.98
48657,-0.31,-0.42,0.95,-46.18,-79.71,72.17,31.02
48667,-0.30,-0.44,1.00,-41.01,-63.74,79.05,31.07
48677,-0.31,-0.46,1.00,-35.24,-49.45,88.69,31.02
48687,-0.34,-0.45,0.98,-30.66,-37.42,97.39,30.93
48697,-0.36,-0.45,0.94,-27.07,-26.82,105.92,31.02
48707,-0.40,-0.44,0.94,-24.78,-25.85,115.08,30.93
48717,-0.38,-0.47,0.92,-25.36,-29.25,119.74,30.93
48727,-0.36,-0.49,0.91,-28.78,-33.85,123.51,31.02
48737,-0.34,-0.52,0.90,-30.27,-37.48,127.18,30.98
48747,-0.33,-0.55,0.90,-30.89,-39.33,129.95,30.98
48757,-0.32,-0.56,0.92,-29.83,-41.85,132.67,30.98
48767,-0.31,-0.57,0.90,-27.42,-41.79,137.73,30.98
48777,-0.28,-0.58,0.87,-25.66,-38.55,143.44,30.98
48787,-0.28,-0.60,0.89,-24.50,-33.53,149.13,31.02
48797,-0.24,-0.63,0.89,-23.11,-28.52,153.53,31.02
48807,-0.23,-0.64,0.88,-21.68,-25.13,157.86,30.93
48817,-0.20,-0.65,0.88,-21.91,-20.95,160.76,31.02
48827,-0.20,-0.66,0.91,-22.05,-22.32,162.14,31.02
48837,-0.18,-0.68,0.90,-24.18,-25.36,162.53,31.02
48847,-0.17,-0.68,0.89,-27.77,-30.32,162.73,30.98
48857,-0.13,-0.68,0.88,-31.30,-34.05,160.99,30.98
48867,-0.15,-0.69,0.91,-33.18,-38.49,159.91,30.98
48877,-0.17,-0.71,0.91,-32.67,-43.02,162.06,30.93
48887,-0.14,-0.73,0.91,-30.95,-42.84,164.92,30.98
48897,-0.12,-0.75,0.90,-29.27,-40.29,166.02,30.98
48907,-0.07,-0.78,0.90,-28.67,-36.12,166.56,31.02
48917,-0.04,-0.80,0.89,-29.25,-30.35,164.63,31.12
48927,-0.02,-0.80,0.89,-31.15,-25.31,162.24,31.02
48937,-0.02,-0.79,0.89,-33.36,-20.53,159.15,31.02
48947,-0.05,-0.78,0.89,-35.50,-18.37,157.79,31.02
48957,-0.08,-0.77,0.88,-38.43,-16.50,158.26,31.07
48967,-0.09,-0.76,0.87,-41.83,-15.69,159.07,30.88
48977,-0.10,-0.75,0.87,-46.15,-14.81,159.34,30.98
48987,-0.11,-0.74,0.88,-49.30,-15.13,158.58,31.07
48997,-0.12,-0.75,0.91,-49.22,-22.60,155.85,30.98
49007,-0.12,-0.72,0.92,-48.75,-30.47,151.51,31.02
49017,-0.16,-0.71,0.92,-47.37,-39.56,148.43,30.93
49027,-0.17,-0.70,0.93,-45.01,-47.98,145.66,31.02
49037,-0.19,-0.70,0.93,-44.02,-52.75,142.64,31.02
49047,-0.24,-0.68,0.92,-43.59,-55.48,143.15,31.02
49057,-0.27,-0.67,0.92,-41.83,-56.03,146.52,30.93
49067,-0.26,-0.67,0.92,-39.74,-56.32,150.24,30.93
49077,-0.26,-0.68,0.91,-37.94,-55.05,154.00,30.98
49087,-0.25,-0.69,0.93,-35.07,-54.29,156.85,31.07
49097,-0.22,-0.70,0.94,-32.27,-55.40,157.22,31.07
49107,-0.22,-0.70,0.95,-28.23,-58.96,158.31,31.07
49117,-0.20,-0.70,0.95,-26.64,-60.18,157.36,31.07
49127,-0.20,-0.69,0.95,-25.73,-60.34,155.82,30.98
49137,-0.23,-0.70,0.96,-24.35,-61.53,155.45,31.02
49147,-0.25,-0.69,0.97,-22.49,-62.72,156.73,30.93
49157,-0.27,-0.70,0.97,-18.81,-66.79,159.44,31.02
49167,-0.27,-0.70,0.95,-16.05,-69.37,163.04,31.02
49177,-0.27,-0.70,0.93,-14.69,-73.01,165.30,30.93
49187,-0.24,-0.69,0.93,-13.86,-76.40,166.61,31.02
49197,-0.21,-0.69,0.92,-11.71,-78.87,167.53,31.07
49207,-0.18,-0.69,0.89,-10.14,-81.69,166.24,30.98
49217,-0.14,-0.68,0.87,-11.02,-82.79,163.48,31.07
49227,-0.13,-0.67,0.87,-12.82,-83.97,160.76,30.98
49237,-0.10,-0.67,0.90,-16.32,-80.43,159.92,30.88
49247,-0.10,-0.67,0.84,-15.98,-85.80,156.56,30.98
49257,-0.10,-0.67,0.84,-18.52,-84.41,154.46,30.93
49267,-0.11,-0.66,0.85,-18.17,-87.92,153.53,31.02
49277,-0.08,-0.66,0.83,-16.75,-89.44,154.82,31.02
49287,-0.04,-0.65,0.81,-14.55,-89.54,155.94,30.93
49297,-0.01,-0.63,0.81,-17.44,-86.21,154.41,30.93
49307,0.01,-0.63,0.80,-23.01,-78.06,153.30,30.93
49317,0.03,-0.64,0.82,-27.10,-69.94,152.23,30.98
49327,0.05,-0.65,0.85,-32.84,-66.66,148.20,30.88
49337,0.04,-0.65,0.90,-36.50,-75.02,141.08,30.98
49347,0.00,-0.64,0.92,-40.99,-87.21,131.13,30.98
49357,-0.05,-0.65,0.97,-47.31,-100.63,121.34,31.02
49367,-0.08,-0.65,1.02,-43.33,-120.29,117.30,30.98
49377,-0.05,-0.65,1.00,-36.17,-133.13,118.63,31.02
49387,0.07,-0.67,0.95,-26.96,-126.29,123.40,31.02
49397,0.21,-0.67,0.91,-20.03,-96.72,128.43,31.02
49407,0.32,-0.66,0.90,-15.31,-59.94,131.73,30.84
49417,0.40,-0.66,0.92,-12.47,-22.96,131.91,31.02
49427,0.44,-0.65,0.98,-10.32,1.86,126.73,30.93
49437,0.43,-0.65,1.04,-6.47,13.19,115.79,30.88
49447,0.37,-0.65,1.03,2.61,7.22,102.52,30.98
49457,0.29,-0.58,1.04,-0.47,-7.13,90.21,30.98
49467,0.24,-0.53,1.04,-0.32,-18.61,79.48,30.98
49477,0.18,-0.50,1.01,-0.32,-25.08,72.61,30.98
49487,0.14,-0.47,0.98,1.39,-21.85,70.73,31.02
49497,0.09,-0.46,0.98,2.08,-16.56,72.27,30.93
49507,0.06,-0.45,0.99,3.77,-10.49,75.34,30.93
49517,0.07,-0.44,0.99,6.05,-5.02,78.73,31.12
49527,0.10,-0.42,0.96,6.81,2.14,80.21,31.02
49537,0.13,-0.42,0.94,6.03,9.08,80.27,31.02
49547,0.15,-0.41,0.94,4.72,15.66,77.76,31.02
49557,0.14,-0.41,1.00,5.51,17.66,74.92,30.98
49567,0.12,-0.39,1.00,6.08,16.40,72.05,30.98
49577,0.09,-0.38,0.99,6.23,14.64,70.50,31.07
49587,0.08,-0.38,0.99,5.62,12.41,69.92,30.98
49597,0.10,-0.37,0.99,4.75,11.54,68.93,30.98
49607,0.13,-0.36,0.98,4.03,12.61,67.24,30.98
49617,0.12,-0.36,0.99,2.47,12.60,64.26,30.93
49627,0.15,-0.35,0.99,1.91,11.54,60.90,30.93
49637,0.15,-0.34,0.99,1.19,12.40,56.69,30.93
49647,0.13,-0.33,0.99,-0.29,11.60,52.31,31.02
49657,0.13,-0.33,1.00,-0.70,8.64,48.98,31.02
49667,0.13,-0.32,0.98,-0.81,6.18,45.80,30.88
49677,0.14,-0.32,0.98,-1.69,2.70,41.66,31.07
49687,0.14,-0.31,1.00,-2.64,0.21,36.84,30.98
49697,0.11,-0.30,1.00,-2.79,-1.15,32.56,30.98
49707,0.08,-0.29,1.00,-2.14,-3.86,30.78,30.93
49717,0.08,-0.28,0.98,-0.72,-2.69,29.95,30.98
49727,0.10,-0.28,0.97,-1.62,1.48,28.31,31.02
49737,0.09,-0.28,1.00,-2.56,4.11,26.21,31.02
49747,0.08,-0.29,1.02,-2.50,3.40,22.95,30.93
49757,0.04,-0.28,1.01,-2.47,1.53,20.20,30.93
49767,0.03,-0.27,1.01,-1.45,-1.40,19.02,31.02
49777,0.04,-0.28,1.00,-0.73,-2.79,17.42,31.02
49787,0.05,-0.27,0.98,-0.64,-2.96,14.99,30.98
49797,0.06,-0.26,0.97,-1.68,-2.67,12.29,30.98
49807,0.06,-0.26,0.97,-1.59,-3.98,8.67,30.88
49817,0.04,-0.26,0.96,-2.44,-2.15,6.21,30.98
49827,-0.01,-0.28,0.99,-3.47,1.30,3.79,31.07
49837,-0.05,-0.27,1.02,-3.89,0.75,1.85,31.02
49847,-0.08,-0.27,1.02,-2.46,-2.50,2.06,30.93
49857,-0.09,-0.27,1.01,-1.60,-3.56,2.55,30.93
49867,-0.07,-0.27,1.00,-1.88,-4.73,2.61,30.93
49877,-0.08,-0.27,1.01,-1.92,-5.59,1.89,31.02
49887,-0.09,-0.28,1.03,-1.45,-7.02,0.00,31.02
49897,-0.12,-0.28,1.04,-0.69,-8.95,-0.43,31.07
49907,-0.15,-0.28,1.05,1.05,-12.50,0.21,30.88
49917,-0.14,-0.28,1.01,2.34,-12.58,2.34,30.98
49927,-0.13,-0.27,1.01,3.01,-11.25,4.18,30.98
49937,-0.11,-0.26,1.01,3.92,-10.99,5.53,30.98
49947,-0.09,-0.26,1.00,3.24,-9.66,4.76,30.98
49957,-0.08,-0.27,1.02,1.89,-9.85,3.08,31.02
49967,-0.08,-0.28,1.05,1.22,-12.00,1.48,31.02
49977,-0.10,-0.29,1.07,1.10,-14.38,-0.64,31.02
49987,-0.10,-0.30,1.06,2.56,-17.66,-2.40,31.02
49997,-0.12,-0.28,1.05,2.95,-16.96,-2.43,31.02
50007,-0.14,-0.28,1.05,2.98,-17.97,-1.18,30.93
50017,-0.12,-0.29,1.05,0.72,-17.10,-0.24,30.98
50027,-0.13,-0.28,1.06,-0.82,-13.47,1.86,30.98
50037,-0.11,-0.29,1.09,0.78,-10.55,3.68,30.98
50047,-0.08,-0.30,1.08,0.99,-8.06,3.31,30.98
50057,-0.07,-0.30,1.07,0.18,-5.89,1.11,31.02
50067,-0.08,-0.29,1.07,-0.41,-9.36,-2.17,30.98
50077,-0.10,-0.28,1.06,-2.60,-11.82,-3.98,30.93
50087,-0.10,-0.27,1.05,-4.69,-12.85,-4.12,31.02
50097,-0.08,-0.29,1.06,-5.30,-8.43,-4.70,30.93
50107,-0.09,-0.30,1.10,-2.64,-4.61,-4.44,30.93
50117,-0.09,-0.30,1.11,-0.11,3.01,-4.34,30.93
50127,-0.12,-0.31,1.09,2.18,10.08,-3.71,31.02
50137,-0.14,-0.29,1.10,4.70,11.98,-2.00,30.88
50147,-0.14,-0.29,1.09,6.15,9.05,-1.01,30.98
50157,-0.12,-0.29,1.08,6.26,6.17,-1.63,30.98
50167,-0.13,-0.28,1.08,5.91,1.95,-2.75,31.07
50177,-0.13,-0.28,1.07,5.97,-2.23,-3.34,30.98
50187,-0.12,-0.28,1.07,6.14,-4.75,-4.03,30.93
50197,-0.12,-0.27,1.07,7.08,-7.48,-4.09,31.02
50207,-0.10,-0.27,1.07,8.41,-9.22,-4.02,30.93
50217,-0.10,-0.26,1.06,9.42,-7.98,-4.34,30.93
50227,-0.09,-0.25,1.03,9.16,-5.56,-3.97,30.93
50237,-0.08,-0.25,1.04,8.35,-2.75,-3.63,31.02
50247,-0.08,-0.25,1.04,6.85,-0.73,-4.35,31.02
50257,-0.07,-0.24,1.05,6.75,2.20,-4.49,31.07
50267,-0.06,-0.25,1.03,7.18,4.99,-4.93,30.98
50277,-0.07,-0.24,1.04,7.18,5.30,-5.92,30.98
50287,-0.07,-0.24,1.02,5.56,4.46,-8.03,30.98
50297,-0.09,-0.23,1.01,3.73,3.39,-10.24,30.98
50307,-0.12,-0.23,1.05,4.79,-0.09,-10.46,30.98
50317,-0.13,-0.23,1.04,8.14,-3.68,-9.30,31.02
50327,-0.13,-0.22,1.01,9.33,-2.60,-7.50,31.02
50337,-0.13,-0.21,1.00,8.63,0.20,-6.81,31.02
50347,-0.13,-0.21,1.00,7.66,1.16,-6.06,31.02
50357,-0.12,-0.21,0.99,5.92,1.63,-5.62,31.02
50367,-0.13,-0.21,1.01,5.39,-1.63,-5.51,30.98
50377,-0.16,-0.22,0.99,4.18,-5.89,-5.98,30.98
50387,-0.18,-0.21,0.98,3.19,-9.27,-4.69,30.98
50397,-0.18,-0.20,0.97,1.63,-11.27,-1.98,31.07
50407,-0.16,-0.20,0.96,-0.12,-10.50,0.76,31.02
50417,-0.14,-0.20,0.94,-2.60,-7.37,2.38,30.98
50427,-0.12,-0.19,0.95,-5.50,-3.65,3.74,31.02
50437,-0.10,-0.20,0.98,-7.48,-1.01,4.73,31.02
50447,-0.10,-0.22,1.01,-7.56,-0.87,4.93,30.84
50457,-0.11,-0.23,1.03,-7.25,-4.20,4.55,30.93
50467,-0.09,-0.24,1.03,-7.04,-5.33,4.43,30.93
50477,-0.10,-0.24,1.05,-6.78,-6.49,3.92,31.02
50487,-0.09,-0.24,1.05,-6.09,-8.34,2.96,30.98
50497,-0.10,-0.24,1.04,-4.79,-8.58,3.77,30.98
50507,-0.10,-0.24,1.00,-4.18,-8.17,5.44,30.98
50517,-0.09,-0.23,1.01,-4.11,-6.84,7.07,31.07
50527,-0.07,-0.24,1.01,-4.05,-7.56,8.06,30.98
50537,-0.06,-0.23,1.01,-5.30,-5.36,8.41,30.93
50547,-0.05,-0.23,1.02,-6.20,-3.10,8.61,31.02
50557,-0.04,-0.24,1.04,-6.81,-2.32,8.44,30.93
50567,-0.04,-0.23,1.04,-7.05,-2.50,7.11,30.93
50577,-0.05,-0.23,1.04,-7.65,-3.44,6.00,30.93
50587,-0.05,-0.23,1.03,-7.37,-3.51,6.46,30.93
50597,-0.04,-0.24,1.05,-6.37,-2.72,6.55,30.98
50607,-0.04,-0.24,1.05,-5.51,-2.64,6.12,30.98
50617,-0.05,-0.24,1.05,-4.85,-2.75,5.91,30.98
50627,-0.04,-0.24,1.04,-3.25,-2.93,6.47,30.88
50637,-0.04,-0.22,1.02,-2.93,-2.73,7.34,30.98
50647,-0.03,-0.20,1.02,-4.31,-2.84,7.62,30.98
50657,-0.02,-0.21,1.02,-4.90,-3.05,7.39,30.93
50667,-0.03,-0.20,1.03,-5.92,-2.81,6.50,31.02
50677,-0.03,-0.21,1.03,-5.97,-1.10,6.27,30.93
50687,-0.05,-0.21,1.04,-5.94,-1.30,7.15,30.93
50697,-0.04,-0.22,1.04,-5.33,-1.27,8.15,31.02
50707,-0.01,-0.23,1.03,-5.86,0.92,8.43,30.93
50717,0.01,-0.24,1.04,-6.66,3.71,8.20,30.98
50727,0.02,-0.25,1.06,-8.63,7.37,6.31,30.88
50737,-0.00,-0.26,1.10,-8.38,7.13,4.23,30.98
50747,-0.01,-0.26,1.09,-7.42,6.09,3.44,30.98
50757,-0.00,-0.26,1.10,-6.06,3.71,1.69,30.93
50767,0.00,-0.25,1.11,-3.92,0.09,-0.31,30.98
50777,0.01,-0.25,1.09,-3.37,-1.10,-2.43,30.93
50787,0.01,-0.25,1.08,-2.82,-0.93,-4.67,31.02
50797,-0.01,-0.25,1.09,-2.79,-0.02,-6.84,31.02
50807,-0.04,-0.25,1.10,-1.51,-0.55,-7.92,31.02
50817,-0.06,-0.24,1.09,-0.72,-0.11,-7.92,31.02
50827,-0.08,-0.24,1.07,0.66,0.41,-7.10,30.98
50837,-0.10,-0.23,1.05,0.81,1.34,-5.40,30.98
50847,-0.10,-0.23,1.04,0.49,3.24,-4.32,30.88
50857,-0.10,-0.23,1.06,0.18,4.87,-3.13,30.88
50867,-0.10,-0.23,1.05,0.21,4.90,-2.82,30.98
50877,-0.11,-0.23,1.04,-0.21,4.64,-3.22,30.98
50887,-0.11,-0.22,1.03,-0.85,3.74,-3.16,30.93
50897,-0.11,-0.22,1.02,-1.51,2.06,-2.56,30.84
50907,-0.12,-0.21,1.01,-2.23,1.51,-1.60,31.02
50917,-0.12,-0.21,0.99,-3.50,2.02,0.12,31.02
50927,-0.11,-0.21,1.00,-4.23,2.69,1.98,30.93
50937,-0.10,-0.22,1.01,-4.98,4.70,3.05,30.93
50947,-0.09,-0.22,1.02,-5.71,6.52,3.91,30.98
50957,-0.09,-0.22,1.03,-5.54,6.98,4.18,30.98
50967,-0.08,-0.23,1.04,-6.21,6.82,4.17,31.07
50977,-0.09,-0.23,1.05,-5.73,3.54,3.80,30.93
50987,-0.07,-0.23,1.03,-5.71,3.15,3.08,30.98
50997,-0.07,-0.23,1.04,-5.45,2.63,2.24,30.93
51007,-0.07,-0.23,1.03,-4.49,1.89,2.47,31.02
51017,-0.06,-0.23,1.03,-3.73,3.15,2.78,30.93
51027,-0.06,-0.23,1.03,-4.40,3.08,1.92,30.93
51037,-0.06,-0.24,1.05,-4.11,0.75,0.72,30.93
51047,-0.06,-0.23,1.04,-3.98,-1.25,0.00,30.93
51057,-0.08,-0.23,1.04,-3.42,-3.50,-0.18,30.98
51067,-0.06,-0.23,1.03,-2.73,-3.13,0.05,30.98
51077,-0.07,-0.22,1.02,-3.22,-0.87,0.05,30.98
51087,-0.07,-0.22,1.01,-3.97,1.91,0.70,30.98
51097,-0.08,-0.23,1.03,-4.56,3.66,1.40,30.98
51107,-0.07,-0.23,1.05,-4.56,3.44,1.11,31.02
51117,-0.07,-0.23,1.06,-4.53,1.95,0.50,31.02
51127,-0.09,-0.24,1.07,-2.69,-0.35,0.27,30.93
51137,-0.08,-0.23,1.06,-0.98,-0.95,-0.60,31.02
51147,-0.09,-0.23,1.04,-0.17,-1.56,-0.60,31.02
51157,-0.09,-0.22,1.02,-0.56,-1.68,0.23,30.93
51167,-0.09,-0.21,1.00,-1.91,-0.90,1.07,31.02
51177,-0.08,-0.21,1.00,-4.11,-0.03,1.05,30.98
51187,-0.09,-0.22,1.02,-4.79,0.92,0.35,30.98
51197,-0.10,-0.22,1.03,-2.72,-0.95,1.27,30.88
51207,-0.09,-0.22,1.02,-2.03,-1.02,2.18,30.98
51217,-0.09,-0.22,1.02,-2.21,0.69,3.01,30.98
51227,-0.08,-0.22,1.01,-3.76,1.44,3.21,30.93
51237,-0.07,-0.22,1.02,-5.02,2.24,2.99,30.93
51247,-0.07,-0.23,1.02,-5.68,2.21,2.66,31.02
51257,-0.06,-0.24,1.03,-5.10,2.11,1.77,30.93
51267,-0.06,-0.23,1.05,-2.99,-1.01,1.21,31.02
51277,-0.06,-0.23,1.02,-3.16,-2.35,0.73,30.93
51287,-0.06,-0.23,1.03,-3.31,-2.37,0.53,30.88
51297,-0.06,-0.24,1.03,-4.23,-1.97,0.00,30.88
51307,-0.07,-0.24,1.04,-4.46,-2.99,-0.53,30.98
51317,-0.09,-0.23,1.04,-4.15,-5.16,-0.79,30.98
51327,-0.09,-0.23,1.05,-2.40,-7.05,0.47,31.02
51337,-0.07,-0.23,1.03,-1.39,-8.53,1.30,30.98
51347,-0.05,-0.22,1.02,-1.79,-8.53,1.08,30.93
51357,-0.04,-0.22,1.02,-3.30,-7.47,1.60,30.93
51367,-0.03,-0.22,1.02,-4.47,-4.99,1.86,30.93
51377,-0.01,-0.23,1.03,-5.54,-2.24,1.44,30.93
51387,-0.01,-0.23,1.04,-6.23,-0.26,0.53,31.02
51397,-0.03,-0.24,1.06,-5.56,0.02,-0.27,30.93
51407,-0.04,-0.24,1.08,-3.83,-1.42,-0.47,30.98
51417,-0.03,-0.24,1.05,-3.31,-1.27,-0.56,30.98
51427,-0.03,-0.24,1.05,-3.69,0.50,-0.76,30.98
51437,-0.04,-0.23,1.07,-3.66,0.49,-0.78,30.98
51447,-0.03,-0.24,1.06,-4.15,1.36,-0.75,30.98
51457,-0.04,-0.24,1.07,-3.95,1.97,-0.61,30.93
51467,-0.04,-0.24,1.07,-2.38,1.94,-0.47,30.98
51477,-0.03,-0.24,1.06,-1.98,1.73,-0.93,30.93
51487,-0.03,-0.24,1.05,-2.29,1.56,-1.47,30.93
51497,-0.02,-0.23,1.05,-2.73,1.21,-2.24,31.02
51507,-0.03,-0.23,1.05,-3.57,-0.35,-2.78,30.93
51517,-0.04,-0.24,1.06,-3.57,-2.29,-2.96,30.93
51527,-0.05,-0.24,1.08,-2.85,-4.76,-3.11,30.93
51537,-0.06,-0.24,1.07,-1.98,-6.70,-2.02,30.98
51547,-0.03,-0.24,1.06,-1.95,-9.22,-1.76,30.98
51557,-0.04,-0.23,1.06,-1.85,-8.87,-1.13,30.98
51567,-0.02,-0.23,1.08,0.12,-12.78,-0.96,30.88
51577,0.02,-0.22,1.05,0.79,-10.78,-1.92,30.98
51587,0.02,-0.21,1.04,1.79,-7.34,-2.27,30.93
51597,0.04,-0.22,1.06,2.23,-3.86,-3.10,30.93
51607,0.03,-0.22,1.05,2.35,-1.11,-4.26,31.02
51617,0.02,-0.21,1.04,1.76,-0.21,-5.54,30.93
51627,0.00,-0.21,1.04,1.56,-1.37,-6.81,30.93
51637,-0.02,-0.20,1.03,1.02,-2.15,-7.57,31.02
51647,-0.02,-0.20,1.02,0.64,-1.89,-7.51,30.93
51657,-0.03,-0.19,1.01,-0.49,0.92,-6.85,30.98
51667,-0.03,-0.19,1.01,-1.10,3.19,-6.38,30.98
51677,-0.04,-0.20,1.00,-2.09,5.76,-6.38,30.88
51687,-0.05,-0.19,1.01,-2.24,7.21,-5.80,30.98
51697,-0.06,-0.19,1.01,-2.18,7.40,-4.75,30.98
51707,-0.06,-0.20,1.00,-2.64,7.57,-5.01,31.02
51717,-0.07,-0.20,1.01,-3.33,7.21,-5.48,30.93
51727,-0.09,-0.19,1.00,-3.47,5.01,-5.10,30.93
51737,-0.10,-0.20,1.00,-4.08,4.15,-4.34,30.93
51747,-0.09,-0.21,1.01,-3.86,3.79,-2.99,30.93
51757,-0.09,-0.21,1.01,-3.45,3.71,-2.31,30.98
51767,-0.09,-0.21,1.00,-3.01,4.50,-1.33,30.98
51777,-0.09,-0.20,0.98,-4.11,6.26,-0.14,30.98
51787,-0.09,-0.20,0.98,-5.63,7.62,0.50,30.88
51797,-0.08,-0.21,0.98,-7.22,9.54,0.99,30.88
51807,-0.09,-0.21,1.00,-8.66,9.27,1.30,31.12
51817,-0.10,-0.22,1.02,-9.21,8.03,2.02,31.02
51827,-0.09,-0.23,1.02,-8.81,7.19,2.47,30.93
51837,-0.08,-0.23,1.04,-7.86,6.52,2.29,30.93
51847,-0.06,-0.23,1.04,-6.66,6.87,2.20,30.93
51857,-0.07,-0.23,1.04,-6.32,7.28,2.11,30.93
51867,-0.08,-0.23,1.03,-5.86,6.21,2.47,30.93
51877,-0.08,-0.23,1.04,-5.15,6.67,3.08,30.98
51887,-0.07,-0.23,1.04,-4.44,7.73,3.60,30.98
51897,-0.08,-0.24,1.07,-1.69,4.60,4.95,30.88
51907,-0.09,-0.24,1.06,-0.06,3.89,5.60,31.07
51917,-0.08,-0.24,1.05,-0.64,7.56,6.05,30.98
51927,-0.09,-0.23,1.07,-0.17,4.81,6.63,30.93
51937,-0.08,-0.24,1.05,-1.51,3.04,6.14,31.02
51947,-0.09,-0.22,1.04,-3.01,-1.28,6.05,30.93
51957,-0.08,-0.23,1.04,-4.24,-3.34,5.82,30.93
51967,-0.07,-0.23,1.04,-5.42,-3.86,6.06,30.93
51977,-0.06,-0.22,1.04,-5.92,-2.17,6.35,30.93
51987,-0.05,-0.22,1.06,-7.05,0.35,6.18,30.98
51997,-0.05,-0.22,1.05,-7.73,1.91,6.05,31.07
52007,-0.04,-0.23,1.06,-8.03,1.30,5.62,30.98
52017,-0.04,-0.23,1.06,-8.87,1.25,4.70,30.98
52027,-0.03,-0.24,1.06,-8.81,0.92,3.94,30.93
52037,-0.04,-0.24,1.08,-8.09,0.17,3.30,30.93
52047,-0.05,-0.24,1.09,-6.17,-1.04,2.87,31.02
52057,-0.04,-0.24,1.10,-4.72,-2.20,2.27,30.93
52067,-0.03,-0.23,1.10,-3.66,-1.95,2.18,30.93
52077,-0.04,-0.23,1.08,-2.92,-1.01,2.44,31.02
52087,-0.04,-0.23,1.07,-2.79,-0.08,2.20,30.98
