Millis,Acce_X,Acce_Y,Acce_Z,Gyro_X,Gyro_Y,Gyro_Z,Temp
82407,0.14,-0.47,1.07,4.85,41.07,-80.03,31.49
82417,0.13,-0.47,1.07,6.05,39.47,-79.62,31.54
82427,0.14,-0.48,1.05,5.19,35.77,-81.65,31.45
82437,0.19,-0.51,1.04,3.92,33.16,-85.50,31.54
82447,0.23,-0.53,1.02,2.52,34.08,-89.57,31.45
82457,0.26,-0.55,0.99,0.81,38.79,-93.94,31.45
82467,0.27,-0.55,0.97,-0.72,46.14,-94.82,31.45
82477,0.24,-0.55,0.93,-1.50,56.08,-95.69,31.45
82487,0.20,-0.55,0.90,-0.81,68.44,-94.37,31.54
82497,0.16,-0.54,0.88,-1.30,80.12,-93.68,31.49
82507,0.09,-0.53,0.87,-2.93,91.34,-89.53,31.49
82517,0.04,-0.51,0.88,-2.37,103.15,-86.61,31.49
82527,-0.04,-0.51,0.91,-1.73,102.17,-84.93,31.49
82537,-0.09,-0.50,0.94,-2.55,92.90,-87.79,31.40
82547,-0.10,-0.50,0.94,-5.47,76.49,-95.16,31.49
82557,-0.07,-0.49,0.93,-9.33,50.38,-101.74,31.49
82567,0.00,-0.52,0.87,-13.27,37.69,-112.14,31.49
82577,0.05,-0.47,0.77,-22.26,33.19,-116.66,31.40
82587,0.06,-0.50,0.75,-26.61,47.73,-114.76,31.49
82597,0.07,-0.49,0.74,-26.06,66.29,-105.66,31.40
82607,0.05,-0.50,0.74,-22.08,99.86,-93.40,31.45
82617,-0.00,-0.52,0.81,-13.47,116.24,-81.33,31.45
82627,-0.06,-0.50,0.81,-9.18,132.66,-75.18,31.54
82637,-0.16,-0.50,0.87,-7.77,121.25,-76.14,31.45
82647,-0.17,-0.51,0.88,-11.15,110.00,-85.16,31.54
82657,-0.23,-0.47,0.90,-17.53,86.79,-96.40,31.35
82667,-0.27,-0.44,0.92,-20.37,68.15,-103.88,31.40
82677,-0.30,-0.43,0.90,-20.61,55.97,-105.05,31.54
82687,-0.29,-0.41,0.88,-19.54,57.04,-98.99,31.49
82697,-0.28,-0.41,0.88,-16.31,63.47,-88.21,31.49
82707,-0.24,-0.41,0.86,-13.48,74.32,-77.73,31.49
82717,-0.24,-0.42,0.87,-12.53,84.49,-69.76,31.49
82727,-0.23,-0.45,0.91,-11.33,90.17,-66.09,31.49
82737,-0.28,-0.44,0.95,-10.67,87.19,-67.66,31.49
82747,-0.37,-0.44,0.99,-12.98,72.89,-71.48,31.49
82757,-0.43,-0.45,1.04,-14.78,52.37,-76.78,31.59
82767,-0.41,-0.47,1.06,-12.89,33.10,-80.64,31.49
82777,-0.38,-0.48,1.02,-12.75,16.46,-84.70,31.45
82787,-0.32,-0.47,0.98,-12.76,7.42,-86.11,31.45
82797,-0.26,-0.47,0.95,-10.17,8.09,-83.04,31.54
82807,-0.22,-0.47,0.93,-8.70,14.70,-77.16,31.54
82817,-0.16,-0.48,0.91,-8.24,23.37,-71.89,31.45
82827,-0.11,-0.50,0.92,-7.10,29.15,-71.15,31.54
82837,-0.11,-0.49,0.93,-5.94,34.75,-71.68,31.45
82847,-0.14,-0.49,0.93,-3.31,36.46,-71.86,31.45
82857,-0.18,-0.48,0.94,-1.13,37.25,-70.46,31.54
82867,-0.19,-0.48,0.95,-0.58,35.56,-69.39,31.45
82877,-0.20,-0.49,0.97,-2.81,34.49,-69.54,31.49
82887,-0.17,-0.50,0.96,-1.83,23.42,-70.92,31.59
82897,-0.15,-0.49,0.93,-1.13,21.28,-70.66,31.40
82907,-0.10,-0.50,0.90,0.99,24.66,-69.31,31.49
82917,-0.06,-0.51,0.90,2.93,25.92,-69.11,31.49
82927,-0.03,-0.53,0.88,3.95,30.32,-71.24,31.49
82937,-0.04,-0.53,0.87,1.71,35.60,-72.81,31.49
82947,-0.05,-0.51,0.88,2.17,38.12,-72.64,31.40
82957,-0.07,-0.50,0.88,2.72,40.14,-71.39,31.49
82967,-0.10,-0.48,0.89,2.37,41.05,-70.79,31.49
82977,-0.11,-0.48,0.90,0.72,37.79,-71.51,31.49
82987,-0.12,-0.49,0.89,-0.93,29.92,-74.38,31.54
82997,-0.11,-0.51,0.90,-1.50,23.48,-77.74,31.45
83007,-0.10,-0.51,0.87,-1.01,17.42,-80.32,31.54
83017,-0.08,-0.52,0.85,-0.84,15.98,-80.81,31.54
83027,-0.07,-0.50,0.82,-2.87,18.95,-80.61,31.54
83037,-0.08,-0.48,0.84,-2.31,23.53,-78.37,31.45
83047,-0.08,-0.49,0.85,0.02,30.76,-74.99,31.45
83057,-0.10,-0.50,0.86,0.35,35.73,-71.22,31.45
83067,-0.10,-0.51,0.88,0.23,36.95,-69.28,31.45
83077,-0.09,-0.53,0.89,-0.32,35.22,-69.15,31.54
83087,-0.08,-0.54,0.87,-1.91,31.97,-70.23,31.49
83097,-0.07,-0.53,0.83,-4.76,31.89,-71.51,31.49
83107,-0.10,-0.52,0.86,-7.42,34.08,-71.31,31.49
83117,-0.09,-0.55,0.83,-6.69,40.72,-71.08,31.49
83127,-0.14,-0.56,0.87,-6.89,38.44,-71.57,31.40
83137,-0.15,-0.56,0.88,-7.07,34.21,-71.45,31.40
83147,-0.15,-0.55,0.89,-7.66,30.63,-71.65,31.49
83157,-0.13,-0.56,0.88,-6.78,26.31,-70.67,31.40
83167,-0.11,-0.56,0.84,-6.98,27.07,-68.61,31.40
83177,-0.08,-0.54,0.80,-8.27,34.95,-64.23,31.49
83187,-0.06,-0.53,0.79,-8.61,42.96,-57.11,31.49
83197,-0.03,-0.50,0.73,-9.01,62.27,-43.68,31.35
83207,-0.01,-0.46,0.67,-10.05,89.56,-26.11,31.35
83217,-0.02,-0.47,0.66,-10.50,118.47,-8.99,31.54
83227,-0.06,-0.51,0.70,-13.86,139.51,-0.60,31.54
83237,-0.13,-0.55,0.79,-18.20,139.40,-3.85,31.54
83247,-0.24,-0.61,0.93,-19.53,116.27,-18.69,31.54
83257,-0.31,-0.66,1.03,-18.72,71.28,-41.65,31.59
83267,-0.29,-0.70,1.05,-18.64,21.53,-66.89,31.45
83277,-0.21,-0.69,0.99,-16.87,-11.10,-83.60,31.45
83287,-0.11,-0.65,0.87,-13.56,-16.56,-86.50,31.35
83297,-0.03,-0.66,0.84,-9.94,1.88,-80.11,31.49
83307,-0.01,-0.65,0.81,-10.21,26.00,-70.89,31.49
83317,-0.01,-0.65,0.84,-11.18,45.42,-64.46,31.49
83327,-0.04,-0.67,0.86,-10.46,52.76,-60.67,31.59
83337,-0.08,-0.67,0.89,-8.82,53.54,-58.87,31.40
83347,-0.09,-0.68,0.90,-8.18,51.42,-58.29,31.49
83357,-0.08,-0.69,0.89,-8.02,50.63,-59.22,31.59
83367,-0.09,-0.70,0.91,-8.55,47.89,-62.21,31.49
83377,-0.10,-0.70,0.92,-7.53,44.98,-65.86,31.49
83387,-0.12,-0.70,0.91,-3.76,42.31,-68.26,31.40
83397,-0.13,-0.69,0.91,0.32,42.08,-68.09,31.49
83407,-0.12,-0.67,0.88,1.88,41.82,-68.44,31.54
83417,-0.14,-0.66,0.87,1.18,43.01,-69.01,31.45
83427,-0.16,-0.64,0.86,-0.92,43.27,-68.60,31.54
83437,-0.17,-0.64,0.85,-2.89,41.59,-67.63,31.45
83447,-0.19,-0.65,0.85,-3.01,40.66,-67.91,31.45
83457,-0.19,-0.67,0.88,-2.67,37.74,-68.52,31.45
83467,-0.20,-0.65,0.88,-1.63,34.90,-69.27,31.40
83477,-0.19,-0.65,0.88,-1.37,31.95,-69.33,31.45
83487,-0.20,-0.65,0.88,-0.35,30.52,-69.13,31.54
83497,-0.21,-0.66,0.89,1.34,32.08,-67.37,31.49
83507,-0.22,-0.66,0.89,3.42,34.17,-65.01,31.49
83517,-0.22,-0.65,0.88,4.53,36.27,-62.75,31.49
83527,-0.24,-0.63,0.89,4.69,37.10,-60.90,31.49
83537,-0.26,-0.62,0.91,4.84,36.47,-58.81,31.49
83547,-0.28,-0.62,0.92,4.37,33.66,-57.54,31.40
83557,-0.28,-0.64,0.94,3.22,29.62,-58.23,31.40
83567,-0.29,-0.66,0.96,3.83,22.40,-59.50,31.49
83577,-0.29,-0.67,0.96,5.16,15.51,-60.12,31.49
83587,-0.27,-0.67,0.94,7.76,10.87,-60.05,31.49
83597,-0.26,-0.65,0.93,9.89,9.85,-58.63,31.49
83607,-0.26,-0.65,0.94,12.43,9.60,-56.05,31.45
83617,-0.25,-0.65,0.93,14.40,10.27,-54.49,31.45
83627,-0.25,-0.63,0.95,15.89,8.26,-54.26,31.45
83637,-0.25,-0.63,0.95,16.85,3.48,-54.49,31.45
83647,-0.24,-0.63,0.94,18.67,-2.76,-54.49,31.54
83657,-0.23,-0.61,0.91,19.04,-6.92,-54.53,31.54
83667,-0.21,-0.58,0.88,17.19,-9.51,-53.31,31.45
83677,-0.20,-0.57,0.88,15.19,-9.53,-50.44,31.49
83687,-0.17,-0.58,0.88,14.11,-8.27,-47.68,31.45
83697,-0.11,-0.61,0.90,18.15,-6.44,-45.47,31.45
83707,-0.16,-0.58,0.91,19.60,-3.45,-43.80,31.49
83717,-0.10,-0.58,0.88,21.04,-0.89,-44.82,31.49
83727,-0.12,-0.55,0.89,20.18,-6.38,-45.80,31.49
83737,-0.12,-0.53,0.86,18.17,-9.18,-46.03,31.40
83747,-0.10,-0.52,0.85,16.63,-9.44,-45.10,31.49
83757,-0.08,-0.52,0.85,14.27,-9.98,-43.92,31.59
83767,-0.06,-0.52,0.83,12.55,-3.79,-42.05,31.49
83777,-0.07,-0.51,0.86,10.66,-2.89,-38.96,31.49
83787,-0.04,-0.51,0.86,10.37,-2.03,-36.61,31.49
83797,-0.04,-0.51,0.86,9.13,-0.90,-34.58,31.40
83807,-0.04,-0.51,0.87,9.05,-0.03,-32.15,31.54
83817,-0.04,-0.49,0.87,7.76,2.31,-30.31,31.54
83827,-0.05,-0.48,0.87,4.18,-0.40,-29.42,31.45
83837,-0.04,-0.50,0.87,2.20,-1.89,-29.24,31.54
83847,-0.04,-0.50,0.88,1.01,-7.01,-28.98,31.54
83857,0.01,-0.48,0.83,0.17,1.24,-27.44,31.54
83867,-0.02,-0.51,0.89,-1.76,-0.69,-25.74,31.54
83877,-0.02,-0.52,0.91,-2.90,4.47,-23.66,31.54
83887,-0.01,-0.54,0.91,-1.82,11.24,-18.23,31.59
83897,0.01,-0.53,0.92,-0.44,17.31,-15.71,31.45
83907,-0.01,-0.53,0.91,0.64,18.08,-13.82,31.40
83917,-0.03,-0.54,0.94,-0.15,19.98,-11.80,31.40
83927,-0.04,-0.53,0.93,0.23,20.34,-10.06,31.49
83937,-0.06,-0.53,0.96,-1.77,18.58,-10.20,31.59
83947,-0.04,-0.56,0.96,-1.07,16.12,-11.21,31.59
83957,-0.03,-0.52,1.00,-2.00,15.57,-10.24,31.40
83967,0.01,-0.54,0.98,6.52,16.18,-7.34,31.49
83977,-0.08,-0.54,0.96,4.95,10.38,-6.92,31.49
83987,-0.05,-0.52,0.97,0.52,10.85,-9.22,31.49
83997,-0.01,-0.53,0.94,-2.18,11.59,-8.02,31.49
84007,-0.03,-0.54,0.95,2.99,11.28,-5.30,31.45
84017,-0.02,-0.51,0.94,-2.23,13.86,-5.34,31.54
84027,0.00,-0.53,0.93,-1.74,11.45,-5.19,31.45
84037,0.04,-0.55,0.91,-3.51,15.54,-5.45,31.45
84047,-0.01,-0.54,0.95,-1.53,9.39,-6.03,31.54
84057,0.00,-0.52,0.92,3.16,15.39,-2.17,31.49
84067,0.02,-0.54,0.91,3.89,19.80,-0.82,31.54
84077,-0.01,-0.52,0.94,-0.02,21.63,-1.65,31.54
84087,-0.07,-0.52,0.95,1.33,17.21,-2.08,31.54
84097,-0.07,-0.52,0.97,-4.32,12.63,-4.32,31.59
84107,-0.07,-0.50,0.98,-6.26,4.85,-7.04,31.49
84117,-0.09,-0.48,0.99,-6.02,0.55,-5.42,31.49
84127,0.00,-0.49,0.98,-6.52,2.60,-6.87,31.49
84137,0.03,-0.50,0.98,-4.90,2.09,-7.21,31.49
84147,0.04,-0.51,0.92,-4.38,9.57,-4.81,31.49
84157,-0.00,-0.51,0.95,-7.45,13.24,-3.02,31.49
84167,0.03,-0.53,0.95,-5.94,17.28,-1.89,31.49
84177,0.04,-0.56,0.96,-9.28,13.01,-4.27,31.49
84187,0.06,-0.54,1.00,-9.73,11.59,-6.46,31.59
84197,0.05,-0.53,0.97,-9.25,11.39,-8.95,31.59
84207,0.14,-0.57,0.92,-8.02,21.63,-9.24,31.54
84217,0.01,-0.52,0.95,-13.83,11.16,-12.53,31.54
84227,0.10,-0.53,0.87,-10.85,18.67,-9.60,31.54
84237,0.10,-0.54,0.88,-12.81,25.73,-8.06,31.54
84247,0.05,-0.55,0.86,-10.64,30.38,-6.67,31.45
84257,-0.09,-0.53,0.89,-11.95,28.31,-6.24,31.54
84267,-0.01,-0.51,0.84,-11.86,32.61,-1.91,31.49
84277,-0.03,-0.50,0.84,-14.09,31.33,-1.73,31.54
84287,-0.12,-0.49,0.85,-17.22,30.78,-2.08,31.54
84297,-0.18,-0.49,0.85,-14.56,22.35,1.48,31.45
84307,-0.07,-0.54,0.80,-10.76,31.24,4.21,31.40
84317,-0.12,-0.54,0.87,-12.81,21.95,1.92,31.49
84327,-0.13,-0.56,0.86,-8.99,26.69,2.63,31.49
84337,-0.11,-0.56,0.85,-8.12,22.84,4.05,31.49
84347,-0.21,-0.53,0.88,-4.35,21.22,7.42,31.49
84357,-0.21,-0.54,0.92,-2.81,19.33,8.75,31.49
84367,-0.25,-0.57,0.91,-3.56,10.82,7.51,31.40
84377,-0.20,-0.59,0.92,-2.72,1.59,7.71,31.49
84387,-0.23,-0.56,0.93,-0.35,-5.13,8.89,31.49
84397,-0.19,-0.54,0.94,-0.64,-7.30,10.76,31.49
84407,-0.10,-0.59,0.86,5.79,-6.32,12.69,31.49
84417,-0.11,-0.57,0.88,3.11,-4.72,12.37,31.45
84427,-0.06,-0.58,0.89,4.21,-5.65,12.90,31.45
84437,-0.07,-0.53,0.91,-0.14,-9.59,14.52,31.54
84447,-0.07,-0.53,0.89,-6.37,-15.68,15.24,31.54
84457,-0.06,-0.55,0.90,-7.71,-10.99,13.86,31.45
84467,0.03,-0.57,0.89,-11.10,-12.32,11.85,31.45
84477,0.06,-0.56,0.89,-9.08,-9.65,10.84,31.54
84487,0.09,-0.55,0.88,-11.31,-8.89,10.40,31.45
84497,0.04,-0.51,0.95,-10.18,-12.37,8.89,31.45
84507,0.10,-0.53,0.90,-6.37,-5.47,8.64,31.54
84517,0.03,-0.52,0.95,-11.51,-12.64,4.38,31.49
84527,0.05,-0.53,0.92,-13.05,-11.34,3.88,31.49
84537,0.07,-0.59,0.93,-6.87,-11.27,7.34,31.49
84547,0.03,-0.61,0.92,0.05,-7.74,11.28,31.49
84557,-0.09,-0.71,1.02,12.93,-6.18,12.89,31.49
84567,-0.09,-0.74,0.92,24.34,3.54,16.38,31.49
84577,-0.12,-0.75,0.97,9.45,1.07,7.74,31.49
84587,-0.07,-0.70,0.93,7.97,-8.12,2.41,31.49
84597,-0.16,-0.65,0.94,3.04,-10.63,-1.85,31.49
84607,-0.08,-0.60,0.87,-1.31,-15.66,-1.60,31.49
84617,-0.16,-0.54,0.92,-4.15,-9.76,0.75,31.49
84627,-0.10,-0.51,0.90,-4.18,-8.09,7.33,31.59
84637,-0.10,-0.49,0.99,-5.08,-6.92,11.34,31.54
84647,0.01,-0.53,0.93,2.78,-1.34,12.87,31.45
84657,0.04,-0.53,1.01,13.18,-0.58,14.53,31.45
84667,-0.05,-0.52,1.01,17.18,3.05,10.06,31.54
84677,0.04,-0.48,0.95,14.38,4.66,8.53,31.54
84687,0.05,-0.47,0.95,10.17,-0.82,6.78,31.45
84697,0.02,-0.44,0.87,10.31,-2.82,7.30,31.45
84707,-0.03,-0.48,0.90,5.91,-10.35,7.91,31.54
84717,-0.05,-0.46,0.92,-0.23,-16.11,7.98,31.54
84727,-0.03,-0.53,0.96,1.60,-13.37,8.72,31.49
84737,-0.09,-0.49,0.95,6.72,-13.56,10.21,31.40
84747,-0.11,-0.50,1.00,3.51,-10.82,8.53,31.40
84757,-0.07,-0.53,0.95,11.18,-2.37,11.77,31.49
84767,-0.14,-0.44,0.98,8.82,1.05,14.41,31.49
84777,-0.13,-0.44,0.94,10.44,2.92,18.63,31.49
84787,-0.17,-0.46,0.95,3.77,0.60,19.92,31.49
84797,-0.16,-0.46,0.99,0.63,4.44,23.28,31.59
84807,-0.19,-0.46,1.00,-5.79,-4.12,22.17,31.49
84817,-0.18,-0.50,1.02,-8.79,-9.04,20.34,31.59
84827,-0.14,-0.48,1.03,-13.66,-17.05,16.31,31.49
84837,-0.10,-0.46,1.03,-13.56,-23.77,16.31,31.54
84847,-0.08,-0.46,0.92,-12.27,-32.96,14.58,31.54
84857,-0.02,-0.44,0.91,-17.44,-32.82,13.37,31.54
84867,0.00,-0.43,0.88,-19.83,-38.92,14.27,31.54
84877,0.03,-0.44,0.98,-25.27,-39.89,15.56,31.54
84887,0.09,-0.46,1.00,-20.70,-37.50,16.29,31.54
84897,0.04,-0.54,1.07,-12.60,-46.00,10.35,31.49
84907,0.13,-0.56,1.14,-2.73,-32.58,5.85,31.45
84917,0.06,-0.58,1.10,-0.61,-33.50,-5.77,31.54
84927,0.09,-0.54,1.03,-3.08,-41.21,-16.05,31.59
84937,-0.03,-0.53,1.08,-10.00,-48.18,-28.23,31.49
84947,-0.14,-0.53,1.00,-7.01,-61.98,-30.09,31.59
84957,-0.19,-0.55,0.95,-22.03,-86.47,-32.95,31.59
84967,-0.16,-0.59,1.01,-19.69,-91.88,-26.63,31.59
84977,-0.09,-0.60,0.97,-18.63,-87.34,-22.47,31.49
84987,-0.08,-0.59,1.05,-20.02,-87.47,-20.98,31.59
84997,0.03,-0.60,0.93,-16.55,-92.90,-19.54,31.49
85007,0.09,-0.54,0.90,-25.02,-86.84,-19.92,31.49
85017,0.08,-0.48,0.83,-38.50,-99.02,-21.91,31.59
85027,0.12,-0.42,0.80,-45.39,-94.02,-17.91,31.59
85037,0.17,-0.45,0.81,-44.26,-90.43,-18.70,31.45
85047,0.22,-0.42,0.81,-40.12,-86.26,-20.95,31.64
85057,0.19,-0.40,0.83,-40.21,-86.17,-26.93,31.54
85067,0.22,-0.36,0.79,-50.23,-86.66,-29.60,31.54
85077,0.19,-0.34,0.71,-61.50,-92.05,-31.13,31.54
85087,0.20,-0.38,0.74,-69.37,-88.70,-32.67,31.64
85097,0.24,-0.44,0.74,-76.92,-84.69,-33.28,31.54
85107,0.08,-0.56,0.87,-81.73,-103.22,-39.98,31.59
85117,0.23,-0.58,0.77,-73.89,-87.08,-29.51,31.54
85127,0.26,-0.64,0.80,-65.80,-76.37,-23.74,31.45
85137,0.23,-0.67,0.88,-62.12,-68.08,-18.03,31.49
85147,0.22,-0.70,0.89,-57.65,-56.17,-14.34,31.49
85157,0.32,-0.76,0.89,-51.40,-49.33,-17.01,31.49
85167,0.29,-0.82,0.91,-42.92,-51.65,-19.73,31.49
85177,0.36,-0.82,0.88,-45.44,-54.50,-27.13,31.49
85187,0.46,-0.83,0.86,-38.53,-54.96,-30.78,31.49
85197,0.51,-0.87,0.87,-36.11,-47.22,-32.56,31.59
85207,0.45,-0.83,0.91,-34.27,-56.47,-38.60,31.59
85217,0.56,-0.74,0.89,-20.56,-37.74,-42.78,31.59
85227,0.70,-0.71,0.84,-26.14,-45.10,-55.18,31.49
85237,0.66,-0.82,0.76,4.09,-28.23,-45.53,31.49
85247,0.75,-0.71,0.69,-9.53,3.60,-53.42,31.64
85257,0.54,-0.60,0.68,-18.03,-27.69,-58.55,31.54
85267,0.50,-0.56,0.65,-28.40,-23.97,-58.52,31.54
85277,0.47,-0.52,0.55,-34.61,-21.79,-44.12,31.54
85287,0.34,-0.53,0.61,-41.18,-13.83,-23.53,31.54
85297,0.44,-0.54,0.66,-47.24,-0.15,-5.25,31.45
85307,0.50,-0.63,0.67,-44.11,8.58,4.44,31.54
85317,0.58,-0.70,0.70,-28.20,27.24,17.28,31.49
85327,0.60,-0.69,0.80,-19.15,42.02,11.59,31.54
85337,0.59,-0.73,0.84,-7.50,47.86,-6.35,31.54
85347,0.56,-0.74,0.84,0.00,42.35,-24.79,31.49
85357,0.49,-0.70,0.78,6.52,37.30,-39.05,31.49
85367,0.44,-0.64,0.76,11.79,38.96,-46.99,31.49
85377,0.36,-0.57,0.74,11.88,40.76,-48.53,31.49
85387,0.30,-0.56,0.69,5.73,42.15,-44.46,31.59
85397,0.19,-0.46,0.69,-2.41,42.84,-32.95,31.49
85407,0.24,-0.48,0.68,-9.92,42.78,-20.90,31.59
85417,0.26,-0.51,0.72,-17.76,42.99,-11.27,31.59
85427,0.30,-0.55,0.76,-21.79,42.92,-5.53,31.59
85437,0.36,-0.60,0.79,-22.21,45.60,-5.37,31.49
85447,0.40,-0.62,0.77,-21.33,45.07,-9.27,31.59
85457,0.41,-0.64,0.77,-23.02,43.08,-14.35,31.54
85467,0.42,-0.63,0.75,-25.44,40.89,-21.48,31.64
85477,0.37,-0.60,0.76,-29.86,34.96,-27.10,31.54
85487,0.31,-0.60,0.73,-35.16,26.00,-27.44,31.54
85497,0.32,-0.56,0.71,-42.95,26.23,-23.04,31.45
85507,0.35,-0.54,0.71,-48.20,27.25,-19.24,31.54
85517,0.42,-0.56,0.70,-50.40,33.16,-18.00,31.54
85527,0.51,-0.58,0.72,-50.29,38.00,-19.95,31.49
85537,0.59,-0.63,0.75,-50.53,40.96,-27.50,31.54
85547,0.66,-0.69,0.73,-54.44,43.51,-39.77,31.45
85557,0.75,-0.75,0.76,-62.05,42.81,-60.35,31.54
85567,0.84,-0.81,0.66,-67.36,36.27,-80.03,31.59
85577,0.85,-0.84,0.59,-56.72,62.02,-86.46,31.49
85587,0.93,-0.84,0.63,-53.28,90.20,-79.40,31.49
85597,0.64,-0.88,0.89,-28.43,103.13,-79.65,31.59
85607,0.50,-0.90,0.92,-11.24,114.44,-74.96,31.59
85617,0.40,-0.84,0.90,0.61,112.34,-70.96,31.49
85627,0.29,-0.85,0.90,1.40,93.76,-83.16,31.49
85637,0.49,-0.76,0.95,-0.46,76.00,-98.73,31.68
85647,0.35,-0.65,0.77,16.73,92.73,-65.48,31.49
85657,0.34,-0.58,0.71,1.11,118.11,-52.40,31.59
85667,0.22,-0.52,0.73,10.12,124.96,-38.02,31.64
85677,0.17,-0.48,0.77,8.18,125.74,-30.87,31.54
85687,0.15,-0.40,0.75,7.19,121.22,-23.13,31.64
85697,0.11,-0.40,0.68,4.66,112.44,-19.30,31.54
85707,0.07,-0.38,0.67,-8.50,102.46,-17.97,31.64
85717,0.05,-0.38,0.63,-20.99,94.24,-13.76,31.45
85727,0.03,-0.41,0.67,-37.51,85.27,-7.60,31.54
85737,-0.00,-0.43,0.69,-49.16,75.91,-1.79,31.59
85747,-0.02,-0.51,0.73,-56.98,65.86,4.73,31.64
85757,-0.05,-0.58,0.76,-60.40,56.53,10.69,31.54
85767,-0.05,-0.67,0.82,-59.28,47.40,14.69,31.64
85777,0.02,-0.71,0.84,-53.66,44.09,16.90,31.59
85787,0.07,-0.73,0.83,-47.21,46.75,15.50,31.59
85797,0.10,-0.76,0.84,-39.98,45.77,10.50,31.49
85807,0.12,-0.77,0.86,-30.69,44.06,3.68,31.49
85817,0.12,-0.78,0.86,-20.09,42.06,-3.62,31.49
85827,0.10,-0.80,0.86,-10.38,38.69,-10.85,31.49
85837,0.06,-0.81,0.88,-1.88,34.61,-15.71,31.59
85847,0.02,-0.81,0.88,7.36,30.95,-17.34,31.59
85857,0.02,-0.81,0.88,13.91,29.47,-16.08,31.49
85867,0.01,-0.79,0.87,18.46,26.00,-15.33,31.49
85877,-0.01,-0.75,0.87,21.83,20.49,-16.35,31.59
85887,0.01,-0.69,0.82,24.20,14.60,-18.81,31.49
85897,0.03,-0.65,0.77,21.27,8.47,-21.51,31.59
85907,0.00,-0.62,0.78,13.15,-3.97,-23.15,31.45
85917,0.01,-0.60,0.79,6.08,-14.61,-22.32,31.54
85927,0.02,-0.55,0.75,1.19,-21.77,-18.92,31.54
85937,0.08,-0.55,0.74,-5.27,-23.74,-14.72,31.54
85947,0.10,-0.56,0.79,-9.25,-27.79,-10.49,31.45
85957,0.12,-0.55,0.80,-9.04,-31.65,-5.08,31.54
85967,0.17,-0.53,0.79,-4.89,-30.14,-0.27,31.54
85977,0.21,-0.57,0.77,-4.37,-28.40,1.82,31.45
85987,0.23,-0.62,0.78,-8.12,-31.51,0.47,31.49
85997,0.24,-0.62,0.79,-13.19,-36.27,-3.69,31.54
86007,0.24,-0.64,0.80,-16.92,-38.81,-6.76,31.64
86017,0.22,-0.66,0.83,-17.19,-39.79,-7.63,31.49
86027,0.17,-0.68,0.86,-14.52,-40.37,-8.70,31.59
86037,0.15,-0.69,0.83,-11.11,-39.19,-9.83,31.49
86047,0.10,-0.73,0.83,-9.85,-42.76,-11.24,31.49
86057,0.05,-0.78,0.83,-10.29,-49.62,-11.86,31.59
86067,0.01,-0.82,0.84,-7.95,-57.68,-9.51,31.49
86077,0.00,-0.88,0.82,-2.99,-61.60,-2.72,31.59
86087,-0.01,-0.95,0.80,3.79,-63.57,6.53,31.49
86097,0.04,-1.03,0.76,12.89,-65.95,10.31,31.49
86107,0.09,-1.11,0.75,16.99,-70.92,5.25,31.49
86117,0.11,-1.12,0.77,16.63,-79.77,-5.37,31.49
86127,0.18,-1.07,0.80,22.56,-87.54,-18.66,31.54
86137,0.25,-0.99,0.82,34.67,-86.85,-35.02,31.54
86147,0.25,-0.85,0.80,47.16,-86.11,-48.96,31.54
86157,0.21,-0.71,0.77,59.97,-87.98,-54.89,31.54
86167,0.19,-0.56,0.70,69.22,-87.85,-48.64,31.54
86177,0.20,-0.43,0.64,71.22,-84.69,-31.66,31.45
86187,0.21,-0.34,0.62,64.37,-80.26,-9.30,31.54
86197,0.25,-0.30,0.63,56.11,-74.90,12.79,31.59
86207,0.30,-0.30,0.66,45.57,-74.40,31.07,31.54
86217,0.33,-0.31,0.69,36.50,-77.73,45.02,31.45
86227,0.36,-0.33,0.74,30.00,-84.55,55.63,31.54
86237,0.43,-0.33,0.72,26.75,-85.44,66.49,31.49
86247,0.53,-0.35,0.66,22.21,-77.65,73.40,31.59
86257,0.61,-0.39,0.67,11.04,-69.51,72.73,31.59
86267,0.63,-0.45,0.72,-2.15,-71.82,63.07,31.49
86277,0.64,-0.48,0.76,-12.95,-79.45,50.67,31.49
86287,0.60,-0.50,0.82,-15.21,-80.84,45.05,31.59
86297,0.52,-0.52,0.84,-14.37,-87.98,45.66,31.49
86307,0.45,-0.56,0.85,-0.34,-87.60,60.24,31.49
86317,0.39,-0.57,0.84,13.28,-80.09,86.26,31.49
86327,0.36,-0.59,0.80,27.13,-66.93,117.04,31.59
86337,0.38,-0.63,0.76,38.64,-53.62,141.16,31.54
86347,0.38,-0.70,0.75,39.39,-48.43,155.28,31.64
86357,0.41,-0.75,0.75,35.10,-52.26,159.24,31.64
86367,0.42,-0.76,0.80,34.23,-57.07,156.20,31.45
86377,0.43,-0.76,0.87,42.12,-56.55,149.53,31.54
86387,0.46,-0.77,0.88,51.18,-53.30,141.04,31.54
86397,0.47,-0.76,0.94,72.08,-47.54,135.01,31.54
86407,0.45,-0.76,0.90,96.35,-42.06,134.37,31.49
86417,0.38,-0.76,0.88,119.73,-40.18,141.97,31.54
86427,0.29,-0.80,0.96,139.69,-53.08,151.45,31.54
86437,0.27,-0.72,0.82,154.26,-29.27,169.44,31.54
86447,0.26,-0.67,0.82,161.13,-22.02,183.53,31.49
86457,0.40,-0.67,0.73,161.54,-8.23,191.30,31.59
86467,0.40,-0.61,0.67,149.76,4.02,193.44,31.59
86477,0.41,-0.57,0.66,138.43,16.98,193.83,31.49
86487,0.32,-0.56,0.69,124.79,31.51,195.04,31.49
86497,0.28,-0.52,0.70,112.34,40.64,199.73,31.59
86507,0.24,-0.51,0.72,104.90,48.32,202.15,31.49
86517,0.21,-0.52,0.77,96.26,53.34,200.96,31.49
86527,0.18,-0.53,0.81,87.68,53.30,196.61,31.59
86537,0.16,-0.51,0.81,76.66,50.98,188.21,31.49
86547,0.14,-0.53,0.84,69.40,50.99,174.56,31.49
86557,0.10,-0.55,0.84,59.79,43.79,158.99,31.49
86567,0.04,-0.53,0.87,49.42,35.97,142.70,31.64
86577,-0.02,-0.52,0.87,39.31,28.92,129.63,31.45
86587,-0.06,-0.52,0.88,31.57,24.23,120.69,31.54
86597,-0.13,-0.53,0.90,22.27,17.04,113.40,31.54
86607,-0.14,-0.53,0.87,12.26,13.66,104.82,31.54
86617,-0.14,-0.54,0.87,-0.52,4.08,89.63,31.54
86627,-0.18,-0.59,0.90,-16.44,-10.99,65.36,31.54
86637,-0.24,-0.64,0.95,-31.42,-36.41,36.79,31.45
86647,-0.27,-0.65,0.95,-41.22,-59.40,15.57,31.45
86657,-0.34,-0.65,0.99,-45.05,-81.82,5.68,31.49
86667,-0.35,-0.62,1.00,-37.08,-85.24,13.21,31.54
86677,-0.31,-0.59,0.98,-22.29,-73.04,35.89,31.54
86687,-0.25,-0.59,0.93,-3.76,-55.36,61.51,31.59
86697,-0.18,-0.58,0.89,7.22,-41.31,81.24,31.59
86707,-0.12,-0.58,0.83,10.79,-32.38,90.47,31.40
86717,-0.07,-0.59,0.79,4.64,-38.02,88.34,31.59
86727,-0.02,-0.60,0.78,-4.82,-48.27,78.17,31.49
86737,0.02,-0.59,0.74,-17.57,-61.59,70.08,31.59
86747,0.02,-0.63,0.79,-21.30,-63.47,67.50,31.59
86757,0.04,-0.68,0.82,-12.78,-64.58,73.33,31.59
86767,0.14,-0.71,0.83,-2.26,-53.60,82.66,31.49
86777,0.21,-0.77,0.80,5.76,-35.73,88.75,31.45
86787,0.20,-0.79,0.84,9.68,-24.12,91.56,31.54
86797,0.18,-0.79,0.86,12.84,-15.11,90.73,31.45
86807,0.14,-0.76,0.88,13.02,-13.18,86.35,31.54
86817,0.04,-0.72,0.91,9.94,-16.43,80.44,31.45
86827,0.00,-0.72,0.89,5.77,-24.72,77.10,31.54
86837,-0.03,-0.71,0.87,4.05,-33.01,77.50,31.54
86847,-0.04,-0.68,0.83,1.74,-37.85,81.16,31.45
86857,-0.05,-0.65,0.80,-0.17,-32.49,91.59,31.45
86867,-0.08,-0.62,0.75,-1.15,-19.63,106.67,31.49
86877,-0.09,-0.63,0.76,-1.65,-8.55,117.59,31.49
86887,-0.10,-0.64,0.78,-4.35,-7.07,119.24,31.49
86897,-0.11,-0.65,0.79,-10.15,-15.13,112.78,31.49
86907,-0.09,-0.64,0.78,-16.55,-33.98,99.13,31.40
86917,-0.03,-0.65,0.76,-20.55,-56.32,82.60,31.49
86927,0.03,-0.68,0.75,-22.93,-73.10,64.23,31.49
86937,0.07,-0.70,0.77,-24.81,-85.19,48.67,31.49
86947,0.09,-0.71,0.79,-19.10,-89.25,40.52,31.49
86957,0.09,-0.73,0.76,-11.62,-85.89,39.89,31.49
86967,0.07,-0.73,0.75,-6.44,-72.56,46.17,31.49
86977,0.04,-0.72,0.77,-3.24,-54.47,58.70,31.54
86987,-0.00,-0.70,0.77,0.90,-37.30,76.14,31.45
86997,-0.02,-0.68,0.78,4.31,-16.93,93.76,31.54
87007,-0.04,-0.70,0.81,7.18,-3.59,107.85,31.45
87017,-0.05,-0.72,0.86,10.09,-3.47,113.86,31.45
87027,-0.04,-0.75,0.90,10.32,-14.60,106.92,31.45
87037,-0.03,-0.78,0.95,10.90,-43.44,90.93,31.40
87047,-0.01,-0.79,0.95,8.95,-69.10,70.26,31.45
87057,0.07,-0.80,0.91,10.05,-80.11,51.48,31.45
87067,0.07,-0.79,0.88,12.14,-90.46,39.37,31.49
87077,0.05,-0.75,0.84,12.79,-86.14,37.22,31.49
87087,0.04,-0.72,0.86,14.61,-76.34,42.17,31.49
87097,0.06,-0.68,0.87,16.93,-65.89,48.47,31.49
87107,0.09,-0.65,0.83,17.98,-59.07,52.67,31.49
87117,0.15,-0.64,0.82,16.61,-57.11,52.32,31.59
87127,0.19,-0.63,0.82,14.66,-60.38,48.95,31.59
87137,0.20,-0.63,0.81,11.88,-60.34,43.60,31.49
87147,0.24,-0.64,0.79,4.55,-57.15,41.05,31.59
87157,0.25,-0.65,0.78,-3.10,-50.41,41.57,31.40
87167,0.26,-0.68,0.81,-15.83,-43.91,41.30,31.54
87177,0.22,-0.72,0.86,-27.28,-37.31,41.53,31.54
87187,0.21,-0.78,0.96,-33.01,-30.38,42.43,31.54
87197,0.18,-0.83,1.05,-30.32,-27.07,41.68,31.45
87207,0.16,-0.85,1.09,-16.89,-27.82,42.26,31.54
87217,0.16,-0.83,1.07,-1.13,-27.63,43.28,31.45
87227,0.18,-0.77,1.02,11.80,-26.05,43.48,31.45
87237,0.18,-0.70,0.98,18.60,-25.27,43.48,31.45
87247,0.18,-0.66,0.96,24.52,-24.44,44.06,31.59
87257,0.15,-0.64,0.95,26.27,-25.25,45.33,31.59
87267,0.11,-0.62,0.93,26.08,-25.37,46.26,31.49
87277,0.11,-0.61,0.91,23.56,-27.95,47.42,31.49
87287,0.10,-0.59,0.89,20.52,-30.43,47.95,31.59
87297,0.10,-0.57,0.89,18.81,-32.24,48.75,31.59
87307,0.10,-0.58,0.89,18.15,-30.90,50.99,31.49
87317,0.09,-0.56,0.88,15.95,-29.37,53.01,31.40
87327,0.08,-0.54,0.87,14.89,-27.28,56.46,31.49
87337,0.08,-0.52,0.85,12.32,-23.07,60.98,31.49
87347,0.07,-0.51,0.84,7.54,-19.71,65.22,31.49
87357,0.07,-0.53,0.86,2.90,-17.39,68.46,31.54
87367,0.06,-0.56,0.89,-1.56,-16.55,69.24,31.45
87377,0.06,-0.59,0.92,-2.44,-15.91,69.60,31.54
87387,0.06,-0.63,0.95,-0.35,-16.52,68.27,31.54
