Millis,Acce_X,Acce_Y,Acce_Z,Gyro_X,Gyro_Y,Gyro_Z,Temp
145237,-0.05,-0.98,0.01,-7.05,-9.82,-7.69,30.32
145247,-0.05,-0.96,0.00,-6.37,-8.27,-5.44,30.41
145257,-0.04,-0.95,-0.00,-7.71,-7.37,-5.59,30.41
145267,-0.04,-0.94,0.01,-11.85,-9.16,-8.78,30.60
145277,-0.06,-0.93,0.02,-14.00,-12.55,-11.62,30.46
145287,-0.06,-0.93,-0.00,-13.82,-14.63,-12.14,30.37
145297,-0.08,-0.93,0.01,-13.94,-15.34,-9.59,30.55
145307,-0.07,-0.94,0.00,-14.58,-16.24,-5.69,30.46
145317,-0.07,-0.97,0.02,-15.66,-18.79,-1.82,30.46
145327,-0.05,-0.99,-0.01,-15.66,-17.15,2.75,30.46
145337,-0.04,-1.03,0.01,-14.31,-16.32,5.86,30.41
145347,-0.04,-1.06,0.02,-12.23,-16.11,7.33,30.41
145357,-0.03,-1.09,0.04,-10.35,-16.75,7.08,30.51
145367,-0.04,-1.11,0.05,-9.97,-19.21,5.48,30.51
145377,-0.02,-1.11,0.04,-9.44,-21.22,3.91,30.46
145387,-0.02,-1.11,0.04,-8.23,-21.28,1.85,30.51
145397,-0.01,-1.10,0.02,-5.88,-19.71,-0.85,30.46
145407,-0.02,-1.09,0.01,-5.04,-20.60,-3.77,30.55
145417,-0.04,-1.08,0.00,-6.29,-23.95,-6.87,30.37
145427,-0.05,-1.08,-0.01,-7.39,-26.93,-8.73,30.46
145437,-0.05,-1.09,-0.02,-8.11,-28.29,-9.62,30.46
145447,-0.05,-1.07,-0.02,-8.67,-28.92,-9.34,30.46
145457,-0.04,-1.04,-0.03,-7.73,-28.29,-8.44,30.46
145467,-0.05,-1.04,-0.05,-6.55,-28.37,-6.70,30.51
145477,-0.07,-1.04,-0.06,-6.73,-28.61,-6.14,30.51
145487,-0.07,-1.04,-0.07,-7.42,-29.85,-6.00,30.51
145497,-0.09,-1.05,-0.08,-8.96,-31.95,-6.06,30.41
145507,-0.10,-1.07,-0.06,-11.27,-33.19,-5.39,30.46
145517,-0.09,-1.07,-0.04,-13.08,-34.75,-5.69,30.51
145527,-0.08,-1.07,-0.02,-13.34,-35.86,-8.18,30.37
145537,-0.08,-1.08,-0.04,-12.67,-36.89,-12.11,30.46
145547,-0.10,-1.10,-0.03,-11.40,-38.93,-16.52,30.46
145557,-0.10,-1.08,-0.02,-11.02,-41.94,-19.54,30.46
145567,-0.12,-1.08,-0.03,-9.42,-42.76,-21.18,30.46
145577,-0.13,-1.07,-0.03,-8.81,-42.95,-20.72,30.55
145587,-0.14,-1.07,-0.05,-7.86,-43.74,-20.17,30.46
145597,-0.15,-1.07,-0.07,-8.17,-45.69,-19.42,30.51
145607,-0.15,-1.07,-0.07,-8.56,-48.60,-18.49,30.51
145617,-0.14,-1.07,-0.10,-8.76,-50.29,-16.18,30.41
145627,-0.13,-1.09,-0.08,-10.15,-50.44,-15.22,30.32
145637,-0.11,-1.09,-0.07,-10.61,-51.50,-16.49,30.46
145647,-0.07,-1.09,-0.09,-11.05,-52.50,-20.81,30.51
145657,-0.06,-1.07,-0.11,-11.04,-53.45,-26.43,30.51
145667,-0.07,-1.04,-0.12,-9.91,-55.28,-31.02,30.37
145677,-0.06,-1.01,-0.15,-9.82,-55.31,-32.92,30.46
145687,-0.07,-1.00,-0.16,-12.52,-56.05,-33.68,30.55
145697,-0.06,-1.03,-0.16,-16.27,-56.15,-34.78,30.46
145707,-0.03,-1.03,-0.15,-19.95,-56.55,-38.24,30.46
145717,-0.00,-1.00,-0.11,-23.21,-56.87,-43.71,30.37
145727,-0.02,-0.99,-0.09,-22.67,-58.29,-44.95,30.41
145737,-0.07,-1.02,-0.10,-16.98,-58.41,-40.35,30.41
145747,-0.10,-1.05,-0.10,-12.31,-57.45,-31.36,30.41
145757,-0.05,-1.08,-0.11,-7.88,-53.33,-20.26,30.51
145767,-0.09,-1.09,-0.07,-4.60,-56.37,-13.62,30.46
145777,-0.09,-1.10,-0.07,-0.75,-56.93,-5.82,30.32
145787,-0.07,-1.12,-0.07,5.97,-57.56,2.18,30.32
145797,-0.03,-1.12,-0.10,12.37,-57.82,8.96,30.37
145807,0.03,-1.10,-0.14,15.91,-56.56,12.32,30.46
145817,0.06,-1.07,-0.15,14.50,-56.14,11.47,30.37
145827,0.08,-1.06,-0.18,11.54,-56.95,7.11,30.46
145837,0.09,-1.07,-0.20,7.01,-57.68,0.78,30.46
145847,0.11,-1.06,-0.21,1.60,-58.96,-5.76,30.55
145857,0.11,-1.04,-0.20,-4.99,-59.94,-12.47,30.41
145867,0.06,-1.01,-0.16,-7.40,-60.18,-13.60,30.41
145877,0.02,-1.01,-0.15,-4.40,-60.92,-7.92,30.41
145887,0.01,-1.04,-0.15,0.76,-58.21,-1.27,30.51
145897,0.02,-1.08,-0.13,3.82,-55.53,3.59,30.46
145907,0.03,-1.08,-0.13,5.57,-54.93,3.97,30.41
145917,0.06,-1.07,-0.13,5.73,-56.27,0.66,30.37
145927,0.07,-1.05,-0.14,4.89,-58.08,-3.37,30.46
145937,0.06,-1.05,-0.15,4.76,-58.43,-4.82,30.37
145947,0.02,-1.03,-0.15,4.32,-57.28,-2.63,30.55
145957,0.01,-1.04,-0.16,3.79,-56.12,1.88,30.37
145967,-0.00,-1.06,-0.14,3.18,-53.89,5.28,30.46
145977,0.01,-1.08,-0.12,2.89,-53.24,6.82,30.41
145987,0.01,-1.08,-0.12,3.65,-53.66,5.94,30.41
145997,0.00,-1.08,-0.11,4.93,-54.84,3.71,30.41
146007,-0.00,-1.07,-0.08,5.27,-56.40,0.03,30.51
146017,-0.01,-1.05,-0.09,5.19,-58.56,-3.25,30.41
146027,-0.03,-1.06,-0.09,6.20,-58.78,-5.56,30.37
146037,-0.06,-1.06,-0.10,6.53,-59.91,-6.87,30.46
146047,-0.06,-1.04,-0.10,5.30,-61.74,-6.92,30.46
146057,-0.07,-1.01,-0.12,4.15,-63.76,-5.33,30.46
146067,-0.06,-0.98,-0.13,4.05,-63.92,-1.94,30.46
146077,-0.05,-0.98,-0.13,4.64,-63.71,0.78,30.46
146087,-0.05,-1.00,-0.14,5.11,-63.60,2.55,30.37
146097,-0.02,-1.02,-0.13,5.65,-63.77,2.31,30.41
146107,0.04,-1.03,-0.15,4.21,-63.48,-4.20,30.41
146117,0.08,-1.01,-0.16,0.96,-63.59,-14.89,30.51
146127,0.11,-1.00,-0.18,-3.36,-63.91,-28.23,30.41
146137,0.10,-0.99,-0.16,-8.95,-65.18,-40.52,30.41
146147,0.05,-0.98,-0.18,-14.35,-67.82,-48.15,30.41
146157,0.03,-1.02,-0.18,-15.74,-67.01,-50.52,30.46
146167,0.06,-1.04,-0.16,-17.15,-63.44,-52.41,30.46
146177,0.05,-1.01,-0.14,-18.64,-61.89,-54.82,30.46
146187,0.01,-0.99,-0.14,-17.48,-63.13,-53.88,30.37
146197,-0.03,-0.97,-0.12,-13.28,-65.50,-48.53,30.46
146207,-0.05,-0.98,-0.12,-9.44,-66.24,-40.35,30.46
146217,-0.06,-0.97,-0.09,-5.83,-66.47,-31.07,30.41
146227,-0.09,-0.97,-0.08,-0.78,-66.34,-19.94,30.41
146237,-0.09,-0.98,-0.09,5.62,-66.99,-7.44,30.51
146247,-0.05,-0.96,-0.13,12.11,-66.61,3.89,30.41
146257,-0.01,-0.95,-0.17,16.24,-66.98,11.86,30.41
146267,0.03,-0.95,-0.21,15.77,-67.97,16.41,30.41
146277,0.08,-0.95,-0.22,12.47,-68.66,15.76,30.46
146287,0.15,-0.95,-0.23,7.86,-68.89,9.80,30.46
146297,0.16,-0.94,-0.22,-0.75,-71.25,-0.38,30.55
146307,0.13,-0.94,-0.22,-8.82,-75.73,-8.89,30.46
146317,0.10,-0.98,-0.20,-12.53,-78.61,-12.49,30.46
146327,0.08,-1.01,-0.17,-12.24,-78.66,-12.00,30.46
146337,0.08,-1.02,-0.14,-10.98,-75.33,-10.38,30.46
146347,0.08,-1.02,-0.14,-7.48,-72.47,-9.44,30.41
146357,0.09,-1.00,-0.13,-4.85,-72.17,-10.37,30.41
146367,0.10,-0.97,-0.15,-5.27,-72.46,-12.73,30.41
146377,0.08,-0.95,-0.15,-6.72,-74.44,-14.06,30.37
146387,0.06,-0.95,-0.16,-8.02,-75.92,-13.28,30.51
146397,0.06,-0.96,-0.18,-7.92,-74.81,-9.71,30.51
146407,0.07,-0.97,-0.18,-7.83,-72.52,-6.84,30.37
146417,0.07,-0.97,-0.17,-7.95,-72.72,-6.64,30.46
146427,0.08,-0.96,-0.13,-9.82,-77.71,-9.92,30.46
146437,0.09,-0.97,-0.18,-10.26,-76.03,-10.98,30.46
146447,0.07,-0.99,-0.17,-10.49,-78.20,-10.52,30.46
146457,0.10,-0.99,-0.18,-8.20,-75.88,-8.76,30.41
146467,0.14,-0.99,-0.20,-5.63,-72.23,-7.80,30.51
146477,0.14,-0.98,-0.19,-5.45,-70.72,-8.46,30.41
146487,0.14,-0.98,-0.19,-6.18,-71.62,-8.67,30.41
146497,0.16,-0.98,-0.23,-6.38,-71.36,-9.66,30.41
146507,0.16,-0.98,-0.24,-8.15,-69.54,-10.55,30.37
146517,0.15,-0.98,-0.23,-11.51,-69.04,-11.62,30.46
146527,0.14,-1.02,-0.22,-13.57,-68.49,-11.69,30.37
146537,0.16,-1.03,-0.20,-12.78,-66.50,-11.97,30.46
146547,0.18,-1.04,-0.17,-10.67,-62.50,-13.59,30.46
146557,0.18,-1.03,-0.17,-9.30,-59.63,-17.56,30.37
146567,0.14,-1.01,-0.13,-10.05,-60.75,-22.64,30.37
146577,0.08,-1.03,-0.12,-9.05,-65.47,-23.62,30.41
146587,0.03,-1.06,-0.15,-6.15,-66.21,-18.31,30.51
146597,0.03,-1.05,-0.15,-2.69,-63.86,-7.57,30.41
146607,0.04,-1.05,-0.17,-0.06,-60.11,2.78,30.41
146617,0.08,-1.03,-0.18,2.17,-56.52,9.48,30.51
146627,0.13,-1.00,-0.19,3.22,-55.11,10.49,30.41
146637,0.18,-0.98,-0.19,0.23,-55.73,4.87,30.46
146647,0.15,-0.99,-0.19,-3.68,-59.57,-3.51,30.46
146657,0.10,-1.02,-0.19,-7.86,-64.14,-7.82,30.46
146667,0.06,-1.03,-0.19,-10.55,-66.40,-5.94,30.37
146677,0.06,-1.05,-0.19,-9.16,-62.38,1.18,30.46
146687,0.07,-1.04,-0.20,-6.24,-55.44,11.28,30.46
146697,0.10,-1.01,-0.23,-3.76,-50.70,19.25,30.46
146707,0.14,-0.98,-0.30,-4.47,-51.08,22.60,30.32
146717,0.14,-0.98,-0.26,-11.28,-49.16,19.22,30.41
146727,0.16,-0.98,-0.23,-22.41,-50.50,10.08,30.51
146737,0.14,-1.01,-0.22,-32.02,-53.97,-3.69,30.51
146747,0.09,-1.00,-0.20,-39.37,-58.27,-14.67,30.41
146757,0.06,-0.98,-0.20,-40.20,-63.02,-17.95,30.41
146767,0.05,-1.00,-0.21,-34.96,-61.30,-15.40,30.46
146777,0.02,-1.01,-0.18,-28.69,-58.90,-5.76,30.37
146787,-0.00,-1.01,-0.17,-20.64,-58.05,9.59,30.37
146797,0.03,-1.05,-0.15,-10.17,-55.05,20.89,30.37
146807,0.05,-1.04,-0.15,-7.91,-57.13,24.18,30.46
146817,0.09,-1.03,-0.15,-8.08,-57.42,23.21,30.37
146827,0.11,-1.02,-0.14,-7.65,-60.17,16.70,30.46
146837,0.12,-1.00,-0.18,-4.90,-62.23,10.00,30.51
146847,0.15,-0.95,-0.25,-2.00,-62.26,7.11,30.51
146857,0.20,-0.92,-0.32,-1.60,-59.51,5.66,30.32
146867,0.20,-0.91,-0.36,-3.79,-57.48,5.91,30.41
146877,0.23,-0.90,-0.37,-8.20,-55.91,6.58,30.41
146887,0.25,-0.95,-0.34,-11.94,-53.13,6.18,30.41
146897,0.27,-1.00,-0.31,-15.69,-51.59,1.37,30.46
146907,0.25,-1.04,-0.27,-18.21,-51.34,-5.27,30.46
146917,0.25,-1.04,-0.26,-19.34,-50.81,-11.56,30.46
146927,0.27,-1.02,-0.27,-18.17,-47.97,-18.03,30.46
146937,0.27,-0.98,-0.27,-18.31,-42.29,-25.44,30.46
146947,0.28,-0.95,-0.29,-20.95,-39.50,-33.73,30.46
146957,0.26,-0.91,-0.29,-25.01,-36.67,-40.55,30.46
146967,0.24,-0.89,-0.30,-28.00,-35.21,-45.37,30.51
146977,0.21,-0.88,-0.28,-30.52,-33.79,-48.12,30.51
146987,0.19,-0.88,-0.26,-32.70,-33.44,-49.47,30.41
146997,0.16,-0.89,-0.23,-34.05,-36.90,-50.79,30.41
147007,0.14,-0.90,-0.21,-33.15,-39.50,-49.05,30.41
147017,0.12,-0.89,-0.21,-28.58,-40.47,-44.14,30.41
147027,0.11,-0.90,-0.23,-21.21,-39.28,-36.12,30.55
147037,0.14,-0.88,-0.28,-16.34,-30.90,-30.60,30.46
147047,0.15,-0.86,-0.28,-22.43,-23.19,-33.54,30.46
147057,0.16,-0.83,-0.26,-31.47,-26.17,-42.72,30.46
147067,0.13,-0.82,-0.25,-43.53,-33.36,-54.46,30.37
147077,0.07,-0.84,-0.24,-50.96,-41.37,-61.45,30.37
147087,0.03,-0.85,-0.25,-49.13,-46.23,-58.63,30.55
147097,0.02,-0.87,-0.25,-42.99,-46.44,-48.31,30.51
147107,-0.00,-0.90,-0.24,-37.73,-46.69,-35.22,30.51
147117,0.02,-0.89,-0.27,-33.83,-48.26,-22.81,30.41
147127,0.07,-0.91,-0.27,-30.66,-48.63,-11.82,30.41
147137,0.13,-0.93,-0.27,-26.89,-45.37,-5.22,30.41
147147,0.14,-0.93,-0.28,-23.71,-43.33,-1.82,30.41
147157,0.13,-0.96,-0.28,-21.59,-44.53,0.53,30.46
147167,0.11,-0.99,-0.29,-18.29,-47.56,2.69,30.46
147177,0.10,-1.01,-0.30,-16.00,-50.52,6.15,30.46
147187,0.10,-1.00,-0.31,-10.98,-51.19,11.36,30.46
147197,0.12,-0.99,-0.32,-5.39,-49.53,17.37,30.55
147207,0.15,-0.98,-0.34,0.55,-46.15,23.42,30.46
147217,0.18,-0.97,-0.35,3.83,-45.50,25.22,30.51
147227,0.18,-0.98,-0.38,4.58,-44.56,24.92,30.41
147237,0.17,-0.98,-0.39,1.66,-43.27,24.90,30.41
147247,0.17,-0.98,-0.41,-1.56,-39.86,25.11,30.41
147257,0.17,-0.99,-0.39,-4.78,-38.23,22.66,30.41
147267,0.17,-1.02,-0.38,-7.39,-38.35,19.24,30.41
147277,0.17,-1.03,-0.38,-7.97,-39.60,15.36,30.46
147287,0.16,-1.03,-0.38,-5.83,-39.68,13.24,30.46
147297,0.16,-1.03,-0.39,-4.99,-37.30,14.05,30.46
147307,0.15,-1.03,-0.38,-4.24,-35.19,18.29,30.46
147317,0.13,-1.05,-0.38,-3.97,-32.37,22.93,30.46
147327,0.14,-1.05,-0.37,-4.00,-29.74,26.93,30.46
147337,0.16,-1.07,-0.36,-1.07,-24.40,29.19,30.51
147347,0.17,-1.09,-0.34,1.60,-20.58,26.55,30.41
147357,0.20,-1.08,-0.36,2.21,-18.87,20.75,30.51
147367,0.21,-1.05,-0.37,1.25,-18.84,9.88,30.41
147377,0.20,-1.02,-0.40,-2.27,-15.89,-1.48,30.37
147387,0.18,-1.00,-0.41,-7.13,-14.64,-11.80,30.32
147397,0.13,-0.97,-0.40,-14.49,-14.99,-18.21,30.46
147407,0.06,-0.94,-0.37,-19.57,-15.98,-19.24,30.46
147417,0.00,-0.94,-0.33,-20.44,-16.21,-14.49,30.37
147427,-0.05,-0.94,-0.30,-16.60,-15.19,-7.02,30.46
147437,-0.07,-0.95,-0.29,-10.99,-13.94,1.40,30.46
147447,-0.06,-0.96,-0.29,-6.14,-14.63,8.87,30.46
147457,-0.02,-0.97,-0.31,-2.98,-15.18,14.05,30.41
147467,0.04,-0.97,-0.33,-1.59,-15.01,15.56,30.51
147477,0.09,-0.99,-0.36,-2.34,-15.18,14.53,30.41
147487,0.11,-1.00,-0.37,-3.56,-14.81,11.33,30.41
147497,0.12,-0.99,-0.35,-6.53,-15.65,7.83,30.41
147507,0.13,-0.98,-0.35,-6.85,-13.95,4.66,30.46
147517,0.16,-0.96,-0.35,-6.90,-10.27,0.43,30.41
147527,0.18,-0.96,-0.35,-7.13,-8.03,-6.20,30.55
147537,0.19,-0.95,-0.39,-8.14,-4.69,-13.10,30.46
147547,0.21,-0.98,-0.43,-11.45,-2.40,-20.43,30.37
147557,0.21,-0.99,-0.42,-17.10,0.29,-28.69,30.55
147567,0.21,-1.02,-0.41,-23.30,2.72,-37.95,30.37
147577,0.20,-1.03,-0.38,-29.31,6.75,-47.19,30.46
147587,0.14,-1.03,-0.37,-31.05,8.81,-52.92,30.51
147597,0.06,-1.04,-0.35,-29.47,7.88,-52.02,30.41
147607,-0.00,-1.04,-0.31,-24.63,4.47,-43.50,30.41
147617,-0.05,-1.03,-0.31,-16.17,2.81,-29.83,30.51
147627,-0.09,-1.03,-0.30,-4.96,2.03,-12.31,30.51
147637,-0.07,-1.02,-0.31,7.51,4.85,5.28,30.46
147647,-0.03,-1.01,-0.32,17.10,6.47,18.37,30.46
147657,0.01,-1.00,-0.34,21.76,7.24,25.54,30.46
147667,0.05,-0.98,-0.36,22.49,5.77,26.66,30.46
147677,0.12,-0.97,-0.36,19.02,3.92,22.21,30.55
147687,0.15,-0.96,-0.39,15.04,3.22,15.27,30.46
147697,0.20,-0.94,-0.40,9.30,4.05,5.36,30.37
147707,0.20,-0.92,-0.43,3.02,5.37,-4.72,30.51
147717,0.17,-0.93,-0.42,-4.06,5.34,-12.75,30.51
147727,0.14,-0.94,-0.41,-9.11,4.76,-17.97,30.41
147737,0.13,-0.95,-0.38,-12.38,6.11,-20.53,30.51
147747,0.10,-0.96,-0.36,-14.29,6.64,-20.58,30.41
147757,0.08,-0.97,-0.32,-12.93,6.70,-19.50,30.51
147767,0.05,-0.97,-0.29,-8.47,6.61,-16.23,30.46
147777,0.03,-0.98,-0.30,-2.43,6.43,-10.60,30.46
147787,0.03,-0.99,-0.28,2.60,6.08,-4.63,30.46
147797,0.03,-0.99,-0.30,7.15,5.54,1.02,30.46
147807,0.05,-0.99,-0.31,11.53,6.15,6.12,30.46
147817,0.09,-0.98,-0.31,14.46,7.94,8.87,30.46
147827,0.12,-0.97,-0.32,15.51,7.82,7.42,30.46
147837,0.14,-0.95,-0.34,15.28,7.85,3.59,30.41
147847,0.13,-0.93,-0.32,13.97,7.86,-1.11,30.41
147857,0.08,-0.93,-0.30,12.37,5.36,-5.92,30.51
147867,0.02,-0.93,-0.27,12.18,3.02,-7.91,30.32
147877,-0.04,-0.93,-0.25,14.84,1.22,-5.19,30.60
147887,-0.09,-0.95,-0.25,18.44,0.11,2.08,30.41
147897,-0.09,-0.97,-0.25,20.24,-1.65,10.67,30.46
147907,-0.06,-1.00,-0.25,20.09,-3.80,16.56,30.46
147917,-0.02,-1.04,-0.26,19.30,-5.68,19.16,30.37
147927,0.05,-1.02,-0.31,19.85,-4.90,22.20,30.46
147937,0.12,-1.02,-0.36,19.62,-1.15,26.44,30.37
147947,0.21,-1.00,-0.37,17.19,2.92,28.41,30.46
147957,0.27,-1.00,-0.38,14.49,7.71,24.32,30.46
147967,0.29,-1.02,-0.39,11.88,11.02,14.06,30.51
147977,0.28,-1.04,-0.38,7.50,10.26,2.63,30.51
147987,0.26,-1.05,-0.38,4.90,9.50,-6.46,30.41
147997,0.25,-1.04,-0.35,1.91,10.24,-11.94,30.32
148007,0.24,-1.03,-0.33,2.93,13.51,-12.35,30.41
148017,0.21,-1.02,-0.33,6.56,18.84,-9.47,30.41
148027,0.19,-1.03,-0.32,11.16,24.00,-5.27,30.46
148037,0.17,-1.02,-0.31,14.85,26.93,-2.58,30.55
148047,0.15,-1.01,-0.30,16.47,26.63,-0.92,30.46
148057,0.14,-0.99,-0.31,17.69,26.23,0.43,30.55
148067,0.15,-0.97,-0.33,18.03,27.76,1.82,30.46
148077,0.17,-0.95,-0.37,16.82,30.23,3.60,30.46
148087,0.18,-0.94,-0.39,15.08,32.93,5.62,30.46
148097,0.18,-0.96,-0.37,11.33,33.62,5.62,30.46
148107,0.18,-0.96,-0.34,7.18,32.81,4.73,30.41
148117,0.17,-0.97,-0.33,3.71,33.21,3.80,30.41
148127,0.17,-0.98,-0.31,1.98,34.43,3.39,30.41
148137,0.16,-0.99,-0.28,3.36,35.21,3.76,30.51
148147,0.15,-0.99,-0.28,7.92,37.08,5.56,30.41
148157,0.13,-0.99,-0.27,12.17,38.67,10.64,30.46
148167,0.13,-0.98,-0.24,16.55,39.60,16.87,30.55
148177,0.13,-0.98,-0.25,21.97,42.90,23.51,30.55
148187,0.13,-0.97,-0.23,26.56,46.64,27.80,30.46
148197,0.11,-0.93,-0.21,28.67,48.09,29.53,30.46
148207,0.09,-0.88,-0.19,30.75,47.71,28.87,30.46
148217,0.07,-0.85,-0.17,33.08,44.85,26.89,30.37
148227,0.02,-0.84,-0.17,38.58,40.66,26.20,30.46
148237,-0.03,-0.85,-0.18,46.03,36.70,29.19,30.41
148247,-0.05,-0.88,-0.17,51.82,35.48,36.02,30.51
148257,-0.04,-0.93,-0.13,57.51,31.56,41.05,30.51
148267,-0.03,-0.91,-0.08,58.05,27.36,41.77,30.51
148277,0.04,-1.02,-0.10,57.62,24.43,38.63,30.51
148287,0.10,-1.05,-0.14,54.40,27.77,32.89,30.46
148297,0.11,-1.08,-0.19,48.89,28.93,28.03,30.51
148307,0.15,-1.07,-0.24,45.22,33.97,22.70,30.46
148317,0.17,-1.10,-0.33,36.67,36.73,17.80,30.46
148327,0.15,-1.07,-0.25,23.31,44.73,10.78,30.37
148337,0.12,-1.04,-0.18,10.63,43.31,3.47,30.46
148347,0.08,-1.03,-0.10,5.08,40.53,-3.69,30.46
148357,0.05,-1.02,-0.08,6.84,40.11,-9.22,30.55
148367,0.00,-1.03,-0.09,11.18,41.39,-9.91,30.51
148377,-0.03,-1.02,-0.09,15.62,41.60,-6.05,30.41
148387,-0.05,-1.01,-0.09,19.10,41.95,1.74,30.41
148397,-0.05,-1.03,-0.10,23.59,43.74,11.47,30.51
148407,-0.05,-1.05,-0.11,27.85,48.24,21.28,30.51
148417,-0.04,-1.05,-0.11,29.21,51.53,29.30,30.46
148427,-0.03,-1.06,-0.13,29.91,50.93,35.10,30.46
148437,0.03,-1.06,-0.13,29.60,51.74,36.06,30.46
148447,0.06,-1.06,-0.13,24.15,49.88,31.42,30.46
148457,0.08,-1.05,-0.12,18.89,47.82,25.86,30.46
148467,0.08,-1.04,-0.14,15.36,46.37,21.63,30.55
148477,0.08,-1.05,-0.12,13.40,45.62,19.91,30.46
148487,0.09,-1.06,-0.15,12.99,47.83,21.07,30.46
148497,0.11,-1.06,-0.15,15.45,53.39,25.04,30.51
148507,0.12,-1.08,-0.15,21.04,60.21,27.34,30.41
148517,0.13,-1.09,-0.15,23.95,67.15,25.22,30.51
148527,0.10,-1.09,-0.13,22.95,67.59,18.24,30.51
148537,0.09,-1.06,-0.12,19.44,66.02,7.30,30.41
148547,0.07,-1.03,-0.10,14.14,63.57,-5.59,30.46
148557,0.05,-1.01,-0.09,8.78,61.30,-16.52,30.46
148567,0.01,-0.98,-0.09,4.21,60.27,-23.21,30.37
148577,-0.01,-0.96,-0.10,3.34,60.61,-22.32,30.46
148587,-0.02,-0.96,-0.10,4.61,62.56,-14.89,30.37
148597,-0.01,-0.97,-0.14,9.28,68.44,-5.59,30.46
148607,-0.02,-0.99,-0.14,11.42,74.82,-0.96,30.46
148617,-0.05,-0.98,-0.09,9.27,74.37,0.18,30.51
148627,-0.06,-0.98,-0.07,6.49,69.62,-1.15,30.51
148637,-0.05,-0.97,-0.05,2.47,66.43,-3.89,30.51
148647,-0.05,-0.96,-0.04,0.61,64.70,-4.84,30.51
148657,-0.03,-0.94,-0.05,1.77,64.85,-4.37,30.51
148667,-0.00,-0.94,-0.08,2.69,65.21,-4.52,30.51
148677,0.02,-0.94,-0.09,1.33,66.00,-5.66,30.46
148687,0.03,-0.92,-0.11,1.63,67.94,-6.82,30.46
148697,-0.01,-0.90,-0.12,1.95,71.95,-8.41,30.46
148707,-0.06,-0.88,-0.12,-0.23,76.12,-7.73,30.46
148717,-0.11,-0.83,-0.10,-6.70,74.43,-8.29,30.55
148727,-0.15,-0.81,-0.08,-14.35,69.62,-10.96,30.46
148737,-0.16,-0.80,-0.09,-21.01,62.85,-10.20,30.51
148747,-0.15,-0.84,-0.11,-24.37,59.50,-3.31,30.51
148757,-0.15,-0.92,-0.07,-24.75,60.79,8.24,30.41
148767,-0.19,-1.03,0.04,-19.79,64.20,24.96,30.51
148777,-0.25,-1.10,0.18,-5.83,66.53,45.59,30.51
148787,-0.27,-1.15,0.25,17.16,70.75,66.41,30.51
148797,-0.26,-1.17,0.20,41.30,76.69,82.92,30.46
148807,-0.19,-1.14,0.13,56.02,75.85,89.39,30.46
148817,-0.09,-1.08,-0.01,54.87,71.89,84.11,30.46
148827,0.03,-1.05,-0.12,39.47,64.58,66.08,30.55
148837,0.12,-1.04,-0.20,18.05,58.44,43.22,30.46
148847,0.16,-1.06,-0.22,-2.11,52.53,18.79,30.46
148857,0.14,-1.09,-0.17,-17.97,49.01,-3.05,30.46
148867,0.10,-1.13,-0.06,-23.54,49.04,-18.92,30.51
148877,0.03,-1.16,0.03,-20.52,50.93,-29.24,30.51
148887,-0.05,-1.17,0.10,-10.78,54.47,-32.05,30.51
148897,-0.12,-1.14,0.14,1.22,54.82,-29.27,30.41
148907,-0.16,-1.10,0.13,16.40,56.49,-20.32,30.41
148917,-0.15,-1.03,0.05,33.94,62.66,-5.88,30.41
148927,-0.14,-0.99,-0.06,44.44,72.35,5.07,30.46
148937,-0.15,-0.94,-0.10,42.93,78.34,9.24,30.55
148947,-0.16,-0.90,-0.09,34.35,72.93,6.85,30.55
148957,-0.15,-0.90,-0.09,22.75,65.31,5.25,30.55
148967,-0.14,-0.92,-0.06,13.40,58.37,2.89,30.55
148977,-0.13,-0.96,-0.05,8.82,55.19,3.34,30.46
148987,-0.09,-1.00,-0.05,7.44,57.79,7.44,30.51
148997,-0.05,-1.02,-0.04,6.38,61.27,9.10,30.41
149007,-0.04,-1.04,-0.02,4.82,61.31,9.08,30.51
149017,-0.05,-1.07,-0.02,3.50,60.49,8.35,30.41
149027,-0.05,-1.10,-0.02,4.58,61.85,7.37,30.46
149037,-0.06,-1.11,0.01,7.02,64.15,5.08,30.41
149047,-0.06,-1.09,0.03,10.21,65.63,2.09,30.37
149057,-0.08,-1.05,0.03,13.02,64.61,-0.78,30.46
149067,-0.09,-1.03,0.00,14.87,64.02,-1.97,30.46
149077,-0.10,-1.00,-0.01,15.48,65.36,-0.47,30.46
149087,-0.11,-0.99,-0.00,16.61,66.81,0.76,30.46
149097,-0.12,-0.97,-0.00,16.85,67.01,2.60,30.46
149107,-0.12,-0.94,-0.03,17.04,64.87,4.15,30.41
149117,-0.10,-0.95,-0.04,17.16,62.38,4.90,30.51
149127,-0.07,-0.96,-0.04,17.57,58.58,3.89,30.60
149137,-0.05,-0.98,-0.04,19.57,55.83,0.79,30.41
149147,-0.06,-1.04,-0.00,20.34,51.73,-5.36,30.41
149157,-0.06,-1.09,0.03,20.73,53.05,-10.81,30.55
149167,-0.08,-1.11,0.07,20.85,56.63,-14.46,30.46
149177,-0.09,-1.11,0.08,22.87,59.33,-14.81,30.46
149187,-0.11,-1.10,0.10,24.37,63.50,-11.85,30.46
149197,-0.11,-1.09,0.07,28.11,66.61,-6.87,30.46
149207,-0.11,-1.07,0.05,29.11,69.69,-1.13,30.55
149217,-0.07,-1.06,0.01,28.37,74.75,3.28,30.55
149227,-0.05,-1.06,0.00,26.76,78.05,2.61,30.41
149237,-0.03,-1.05,-0.00,24.34,80.12,-1.04,30.51
149247,-0.02,-1.01,-0.00,21.48,81.19,-4.76,30.51
149257,-0.02,-1.00,0.00,20.14,80.21,-9.74,30.60
149267,-0.03,-0.99,-0.01,18.90,80.20,-14.76,30.51
149277,-0.04,-0.98,-0.05,15.42,79.18,-18.56,30.60
149287,-0.06,-0.98,-0.03,8.99,78.99,-22.14,30.46
149297,-0.12,-0.97,0.01,3.11,77.02,-24.32,30.55
149307,-0.17,-0.97,0.05,0.95,75.69,-21.68,30.46
149317,-0.22,-0.98,0.08,2.69,75.30,-14.38,30.55
149327,-0.24,-1.00,0.11,8.90,75.89,-4.24,30.55
149337,-0.22,-1.03,0.12,16.63,77.74,6.64,30.46
149347,-0.18,-1.03,0.11,22.15,79.01,13.89,30.51
149357,-0.11,-1.02,0.08,25.24,80.32,15.56,30.41
149367,-0.06,-1.01,0.10,25.73,81.07,12.93,30.51
149377,-0.01,-1.01,0.04,27.48,77.74,6.69,30.46
149387,0.00,-1.01,0.02,27.60,77.74,-1.50,30.60
149397,-0.02,-0.99,0.01,26.61,77.91,-8.14,30.51
149407,-0.05,-0.96,-0.00,24.31,78.20,-10.37,30.46
149417,-0.08,-0.94,-0.01,21.80,80.75,-9.34,30.46
149427,-0.08,-0.92,-0.01,19.42,84.64,-6.18,30.55
149437,-0.12,-0.94,0.01,16.38,87.80,-5.86,30.46
149447,-0.20,-0.95,0.06,11.95,86.67,-6.11,30.55
149457,-0.25,-0.97,0.11,8.56,80.92,-5.47,30.46
149467,-0.27,-0.98,0.15,5.91,75.88,-5.39,30.41
149477,-0.28,-0.99,0.19,4.52,71.36,-6.00,30.51
149487,-0.30,-0.98,0.20,6.11,65.51,-3.05,30.51
149497,-0.29,-0.95,0.15,9.28,63.63,4.37,30.51
149507,-0.27,-0.96,0.11,10.56,64.53,13.73,30.55
149517,-0.23,-0.99,0.11,9.25,65.40,21.25,30.55
149527,-0.19,-1.03,0.11,5.53,64.38,23.53,30.46
149537,-0.16,-1.06,0.12,3.19,62.66,24.06,30.46
149547,-0.16,-1.07,0.12,2.90,63.60,24.14,30.46
149557,-0.16,-1.08,0.16,4.63,63.74,23.40,30.55
149567,-0.17,-1.08,0.16,5.54,64.40,21.85,30.55
149577,-0.18,-1.07,0.17,5.76,62.96,19.08,30.55
149587,-0.18,-1.05,0.17,6.05,60.69,15.39,30.41
149597,-0.16,-1.05,0.15,4.27,58.55,10.67,30.51
149607,-0.15,-1.06,0.13,0.67,56.38,2.23,30.51
149617,-0.15,-1.05,0.11,-3.82,51.94,-5.74,30.51
149627,-0.16,-1.02,0.09,-8.11,49.02,-9.31,30.51
149637,-0.18,-1.02,0.09,-8.69,49.21,-6.44,30.55
149647,-0.20,-1.03,0.11,-6.08,55.42,2.56,30.55
149657,-0.23,-1.07,0.14,-2.76,61.34,9.98,30.46
149667,-0.24,-1.09,0.19,0.00,63.59,12.64,30.46
149677,-0.23,-1.06,0.21,0.67,60.66,10.61,30.37
149687,-0.22,-1.04,0.18,1.02,56.09,4.67,30.46
149697,-0.21,-1.02,0.12,-1.77,53.71,-2.18,30.46
149707,-0.18,-1.00,0.05,-10.34,51.39,-9.34,30.46
149717,-0.17,-0.98,-0.01,-27.63,49.92,-18.44,30.41
149727,-0.15,-0.97,-0.03,-49.56,44.58,-28.93,30.51
149737,-0.16,-0.99,-0.03,-68.96,40.23,-37.22,30.60
149747,-0.20,-1.02,-0.02,-82.98,39.94,-36.37,30.51
149757,-0.22,-1.05,0.06,-85.24,41.31,-30.03,30.51
149767,-0.21,-1.09,0.18,-70.44,47.82,-27.28,30.55
149777,-0.21,-1.12,0.25,-53.53,49.80,-29.66,30.55
149787,-0.19,-1.12,0.21,-36.06,42.85,-32.67,30.37
149797,-0.20,-1.10,0.17,-22.37,44.49,-34.93,30.46
149807,-0.13,-1.07,0.07,-13.02,49.45,-34.95,30.37
149817,-0.12,-1.05,0.03,-15.68,52.37,-37.45,30.46
149827,-0.11,-1.01,0.01,-22.82,48.78,-42.32,30.46
149837,-0.09,-1.01,-0.01,-27.44,45.62,-46.35,30.46
149847,-0.09,-1.02,-0.02,-26.90,44.63,-46.08,30.51
149857,-0.12,-1.00,0.00,-23.45,46.53,-42.67,30.60
149867,-0.16,-1.00,0.03,-17.89,48.02,-33.77,30.51
149877,-0.17,-1.02,0.03,-13.85,47.69,-24.21,30.32
149887,-0.20,-1.04,0.07,-11.88,47.08,-15.25,30.41
149897,-0.21,-1.04,0.10,-5.51,46.61,-5.53,30.46
149907,-0.18,-1.01,0.09,3.74,48.82,5.44,30.51
149917,-0.14,-1.00,0.03,9.01,50.64,15.04,30.46
149927,-0.10,-1.01,-0.02,9.65,52.44,19.36,30.46
149937,-0.06,-1.02,-0.02,6.41,51.28,17.92,30.46
149947,-0.05,-1.05,-0.01,0.40,47.18,11.39,30.37
149957,-0.02,-1.07,-0.00,-4.41,44.32,3.01,30.46
149967,-0.00,-1.10,0.01,-7.22,41.36,-8.34,30.46
149977,0.02,-1.08,0.02,-8.02,40.53,-18.29,30.55
149987,0.03,-1.06,0.01,-8.24,42.08,-26.32,30.41
149997,0.01,-1.02,-0.01,-8.38,41.95,-30.02,30.51
150007,-0.01,-0.99,-0.04,-7.33,43.71,-29.42,30.41
150017,-0.05,-0.98,-0.04,-5.28,45.76,-23.73,30.51
150027,-0.07,-0.99,-0.05,-2.96,47.83,-16.37,30.37
150037,-0.07,-1.04,-0.02,-1.24,49.86,-10.61,30.51
150047,-0.06,-1.06,0.01,-1.97,49.07,-9.47,30.46
150057,-0.06,-1.05,0.04,-5.95,46.49,-11.44,30.46
150067,-0.05,-1.04,0.04,-7.57,44.05,-14.85,30.55
150077,-0.05,-1.03,0.02,-8.09,43.66,-17.97,30.46
150087,-0.06,-1.00,0.01,-8.89,42.85,-17.92,30.46
150097,-0.09,-0.99,-0.00,-10.34,41.62,-15.08,30.46
150107,-0.09,-0.99,-0.01,-12.05,41.54,-7.79,30.46
150117,-0.11,-0.99,-0.01,-12.46,42.53,2.15,30.51
150127,-0.10,-1.02,0.02,-9.97,45.30,11.21,30.41
150137,-0.08,-1.05,0.05,-6.12,47.27,18.27,30.41
150147,-0.09,-1.08,0.06,-1.80,47.47,21.82,30.51
150157,-0.08,-1.08,0.08,2.38,45.62,21.86,30.46
150167,-0.07,-1.09,0.09,6.60,43.53,19.54,30.41
150177,-0.07,-1.07,0.05,8.85,43.34,16.06,30.37
150187,-0.06,-1.05,0.04,8.11,41.47,12.47,30.46
150197,-0.09,-1.02,0.01,7.47,39.25,10.98,30.55
150207,-0.10,-1.00,0.02,5.37,37.02,11.77,30.46
150217,-0.11,-0.96,-0.00,3.07,37.04,15.57,30.46
