Timestamp,Acce_X,Acce_Y,Acce_Z,Gyro_X,Gyro_Y,Gyro_Z,Temp
117197,-0.09,-0.99,0.07,2.23,0.58,6.45,28.91
117207,-0.07,-0.99,0.08,1.94,1.76,5.92,28.91
117217,-0.05,-1.00,0.09,1.47,3.40,4.72,28.77
117227,-0.05,-0.99,0.11,2.44,2.08,3.34,28.95
117237,-0.04,-1.00,0.10,3.31,-1.90,2.30,28.91
117247,-0.02,-1.00,0.08,5.38,-5.19,1.34,28.81
117257,-0.01,-0.99,0.08,7.37,-6.27,0.79,28.81
117267,-0.00,-0.98,0.04,9.53,-0.88,1.27,28.86
117277,0.00,-0.98,0.02,9.05,7.05,1.70,28.95
117287,0.00,-0.98,0.03,7.62,10.60,3.08,28.81
117297,0.01,-0.99,0.04,6.21,12.92,3.63,28.91
117307,0.02,-0.99,0.04,6.73,14.55,4.14,28.91
117317,0.03,-0.99,0.06,8.50,16.96,4.52,28.86
117327,0.05,-0.99,0.05,9.83,19.62,2.92,28.81
117337,0.04,-1.00,0.06,9.59,22.33,-0.69,28.81
117347,0.03,-0.99,0.06,7.80,20.54,-4.33,28.91
117357,0.04,-0.99,0.07,6.62,17.98,-9.20,28.86
117367,-0.01,-0.98,0.06,5.01,16.75,-10.09,28.86
117377,-0.02,-0.99,0.10,8.73,13.15,-11.39,28.91
117387,-0.02,-1.00,0.10,12.68,16.47,-11.15,28.91
117397,-0.02,-1.00,0.10,16.90,18.77,-9.78,28.86
117407,-0.02,-1.00,0.08,20.21,22.84,-7.95,28.86
117417,-0.02,-1.00,0.08,22.55,28.64,-6.42,28.91
117427,-0.01,-1.01,0.10,23.84,35.07,-4.26,28.81
117437,0.00,-1.02,0.13,24.76,37.35,-3.77,28.81
117447,0.02,-1.01,0.15,28.38,36.23,-2.30,28.86
117457,0.05,-1.03,0.12,33.60,37.83,-1.56,28.95
117467,0.05,-1.01,0.08,37.95,42.77,1.05,28.81
117477,0.07,-1.02,0.05,38.59,46.76,1.50,28.81
117487,0.08,-1.02,0.03,37.45,46.01,3.76,28.81
117497,0.12,-1.05,-0.00,33.52,52.60,3.46,28.86
117507,0.14,-1.06,0.01,28.97,58.58,0.95,28.91
117517,0.19,-1.07,-0.00,22.57,64.63,-3.85,28.81
117527,0.18,-1.08,0.04,19.83,75.47,-8.82,28.81
117537,0.15,-1.08,0.07,18.62,70.50,-12.78,28.95
117547,0.16,-1.08,0.04,16.67,65.32,-15.16,28.95
117557,0.16,-1.12,0.06,22.22,84.66,-25.44,28.81
117567,0.06,-1.13,0.03,23.18,110.54,-23.44,28.81
117577,0.15,-1.09,0.01,21.92,122.76,-18.03,28.86
117587,0.11,-1.06,0.01,21.40,116.62,-15.54,28.86
117597,0.09,-1.00,0.00,19.95,102.23,-12.67,28.91
117607,0.10,-1.04,-0.03,18.31,91.47,-14.09,28.81
117617,0.10,-1.01,-0.01,17.22,97.08,-17.13,28.86
117627,0.14,-1.02,-0.01,18.69,108.74,-23.25,28.86
117637,0.13,-1.01,-0.04,16.18,118.53,-27.31,28.91
117647,0.09,-0.98,0.02,18.26,118.89,-29.96,28.91
117657,0.02,-1.00,0.01,23.26,115.47,-32.82,28.91
117667,0.03,-0.97,-0.07,25.80,120.68,-33.40,28.86
117677,0.01,-0.96,-0.10,26.65,121.02,-33.29,28.95
117687,-0.02,-0.95,-0.09,27.47,122.98,-31.31,28.91
117697,-0.05,-0.97,-0.09,28.27,121.31,-28.76,28.91
117707,-0.10,-0.94,-0.06,26.87,121.68,-24.69,28.86
117717,-0.06,-0.97,-0.08,29.96,126.73,-21.66,28.95
117727,-0.10,-0.93,-0.00,30.95,125.27,-21.73,28.81
117737,-0.05,-0.92,-0.07,28.60,129.76,-16.05,28.81
117747,-0.08,-0.93,-0.04,26.11,133.09,-15.63,28.77
117757,-0.10,-0.90,-0.04,23.25,136.76,-15.45,28.86
117767,-0.12,-0.91,-0.03,21.13,133.57,-16.41,28.81
117777,-0.15,-0.92,-0.05,15.76,129.72,-16.35,28.91
117787,-0.14,-0.94,-0.05,12.66,129.29,-15.38,28.81
117797,-0.13,-0.94,-0.04,8.75,127.27,-14.95,28.86
117807,-0.14,-0.96,-0.00,7.62,128.18,-15.08,28.86
117817,-0.13,-0.98,-0.01,10.41,131.99,-13.74,28.81
117827,-0.12,-0.99,-0.05,13.92,135.91,-11.03,28.81
117837,-0.14,-0.98,-0.06,14.30,140.98,-7.12,28.91
117847,-0.07,-1.03,-0.14,17.10,152.02,-4.31,28.86
117857,-0.16,-1.02,-0.05,11.57,147.26,-6.24,28.81
117867,-0.08,-1.06,-0.11,13.12,153.21,-7.34,28.91
117877,-0.09,-1.04,-0.08,12.16,150.56,-9.94,28.81
117887,-0.08,-1.03,-0.09,13.53,148.11,-13.44,28.95
117897,-0.10,-1.04,-0.06,13.91,133.98,-19.32,28.86
117907,-0.10,-1.03,-0.11,19.40,138.10,-23.66,28.91
117917,-0.05,-1.05,-0.21,15.08,140.80,-29.82,28.91
117927,-0.08,-1.03,-0.21,10.89,141.98,-34.36,28.86
117937,-0.17,-1.01,-0.21,18.05,133.98,-36.06,28.86
117947,-0.14,-0.96,-0.23,13.94,125.02,-38.56,28.91
117957,-0.16,-0.97,-0.23,15.39,115.74,-41.78,28.91
117967,-0.15,-0.97,-0.29,16.49,118.16,-46.18,28.86
117977,-0.25,-0.95,-0.24,12.84,117.34,-48.89,28.86
117987,-0.21,-0.95,-0.29,10.12,125.93,-50.56,28.95
117997,-0.25,-0.96,-0.31,2.17,142.79,-50.60,28.91
118007,-0.29,-0.94,-0.29,-1.43,151.43,-48.82,28.91
118017,-0.34,-0.96,-0.24,-0.16,152.73,-45.38,28.81
118027,-0.38,-0.95,-0.24,4.01,152.33,-39.43,28.86
118037,-0.40,-0.95,-0.23,7.16,149.34,-32.86,28.91
118047,-0.40,-0.94,-0.23,7.84,148.31,-26.88,28.81
118057,-0.40,-0.93,-0.23,7.04,150.82,-22.44,28.95
118067,-0.41,-0.93,-0.23,6.72,153.66,-18.02,28.86
118077,-0.43,-0.96,-0.21,8.08,152.35,-13.61,28.86
118087,-0.43,-1.00,-0.19,8.88,149.00,-9.88,28.91
118097,-0.42,-1.01,-0.18,11.21,144.49,-7.43,28.81
118107,-0.40,-1.03,-0.15,14.61,141.54,-6.78,28.95
118117,-0.39,-1.03,-0.14,18.00,138.28,-7.68,28.86
118127,-0.37,-1.04,-0.14,21.19,134.37,-9.64,28.81
118137,-0.36,-1.03,-0.15,22.87,131.89,-11.32,28.91
118147,-0.36,-1.02,-0.16,24.69,130.96,-13.40,28.86
118157,-0.37,-1.01,-0.19,25.88,129.04,-13.89,28.86
118167,-0.35,-1.02,-0.19,25.70,127.49,-15.05,28.81
118177,-0.34,-1.02,-0.19,24.00,125.39,-17.51,28.81
118187,-0.33,-1.03,-0.17,21.28,121.66,-21.71,28.91
118197,-0.34,-1.04,-0.17,17.55,115.56,-26.32,28.81
118207,-0.35,-1.03,-0.14,13.76,109.53,-30.32,28.86
118217,-0.34,-1.03,-0.12,11.10,104.94,-32.25,28.81
118227,-0.32,-1.02,-0.08,11.40,103.24,-33.90,28.81
118237,-0.32,-1.02,-0.05,15.01,103.34,-34.42,28.86
118247,-0.32,-1.00,-0.05,19.27,102.88,-33.56,28.86
118257,-0.31,-1.00,-0.06,21.83,102.90,-32.05,28.86
118267,-0.32,-0.99,-0.06,23.76,101.47,-29.28,28.81
118277,-0.31,-0.98,-0.09,24.74,97.21,-25.63,28.91
118287,-0.30,-0.97,-0.10,23.40,98.34,-22.53,28.95
118297,-0.28,-0.96,-0.10,20.91,98.02,-19.17,28.95
118307,-0.27,-0.96,-0.08,19.27,97.24,-15.94,28.91
118317,-0.24,-0.98,-0.07,18.95,96.44,-12.50,28.72
118327,-0.21,-1.01,-0.07,20.89,96.82,-10.27,28.81
118337,-0.17,-1.05,-0.07,25.25,98.25,-7.64,28.95
118347,-0.15,-1.07,-0.08,30.88,99.44,-5.29,28.86
118357,-0.15,-1.07,-0.10,34.75,103.67,-3.66,28.91
118367,-0.16,-1.06,-0.13,36.29,104.13,-2.09,28.91
118377,-0.16,-1.06,-0.16,36.69,106.09,-0.59,28.81
118387,-0.15,-1.04,-0.21,36.85,108.12,0.82,28.77
118397,-0.16,-1.03,-0.23,34.58,109.99,1.55,28.91
118407,-0.16,-1.04,-0.22,32.03,109.01,1.42,28.91
118417,-0.15,-1.06,-0.21,31.55,108.05,-0.51,28.91
118427,-0.17,-1.06,-0.23,31.95,109.65,-3.66,28.86
118437,-0.21,-1.04,-0.22,32.97,110.27,-4.89,28.86
118447,-0.22,-1.01,-0.24,35.07,112.05,-4.05,28.81
118457,-0.25,-0.96,-0.26,35.05,118.47,-1.89,28.81
118467,-0.28,-0.94,-0.26,32.36,120.49,-1.81,28.86
118477,-0.30,-0.94,-0.23,27.36,117.61,-4.69,28.86
118487,-0.31,-0.93,-0.21,19.44,113.16,-11.73,28.91
118497,-0.35,-0.88,-0.18,13.88,102.95,-19.86,28.81
118507,-0.38,-0.87,-0.16,4.28,90.55,-28.15,28.91
118517,-0.39,-0.85,-0.14,-2.28,85.73,-37.56,28.77
118527,-0.43,-0.85,-0.07,-7.17,79.89,-43.88,28.77
118537,-0.48,-0.84,-0.04,-10.54,61.19,-47.53,28.81
118547,-0.51,-0.85,-0.04,-11.60,49.76,-46.50,28.91
118557,-0.53,-0.83,-0.02,-7.66,44.48,-42.76,28.91
118567,-0.56,-0.82,-0.05,-7.93,42.85,-36.36,28.86
118577,-0.57,-0.81,-0.02,-12.07,42.69,-28.01,28.81
118587,-0.56,-0.81,0.05,-12.63,40.11,-18.41,28.91
118597,-0.52,-0.84,0.07,-9.10,35.27,-9.20,28.91
118607,-0.47,-0.87,0.04,-3.27,33.37,-3.02,28.86
118617,-0.41,-0.89,0.02,3.88,33.47,0.39,28.86
118627,-0.38,-0.90,-0.01,9.11,32.54,2.31,28.72
118637,-0.36,-0.92,-0.05,8.15,29.92,1.84,28.81
118647,-0.33,-0.94,-0.07,2.67,25.11,-0.23,28.86
118657,-0.32,-0.95,-0.05,-3.29,16.51,-3.83,28.86
118667,-0.30,-0.98,-0.04,-7.18,8.70,-8.26,28.81
118677,-0.30,-1.00,-0.04,-8.58,4.19,-13.30,28.81
118687,-0.31,-1.01,-0.02,-9.45,1.11,-17.66,28.86
118697,-0.33,-1.00,-0.01,-10.72,-2.77,-20.40,28.86
118707,-0.35,-0.99,-0.00,-12.76,-7.42,-21.58,28.86
118717,-0.37,-0.99,0.01,-15.03,-14.34,-21.72,28.91
118727,-0.39,-1.00,0.02,-15.67,-19.98,-20.15,28.91
118737,-0.41,-1.01,0.03,-14.79,-24.73,-17.50,28.81
118747,-0.43,-1.02,0.02,-12.56,-29.95,-13.48,28.77
118757,-0.45,-1.01,0.04,-10.43,-34.08,-8.16,28.72
118767,-0.44,-1.02,0.05,-8.50,-37.27,-1.98,28.81
118777,-0.43,-1.01,0.08,-6.40,-41.88,4.10,28.86
118787,-0.41,-1.00,0.10,-1.68,-46.10,9.35,28.86
118797,-0.38,-0.99,0.11,3.96,-46.68,14.47,28.91
118807,-0.35,-0.99,0.12,11.50,-47.85,17.79,28.72
118817,-0.32,-1.00,0.10,19.24,-48.82,18.60,28.86
118827,-0.30,-1.01,0.07,24.15,-48.84,17.04,28.77
118837,-0.31,-0.99,0.03,26.87,-50.88,13.51,28.77
118847,-0.33,-0.97,0.00,24.42,-54.60,10.58,28.91
118857,-0.35,-0.92,-0.02,20.69,-62.21,8.60,28.81
118867,-0.36,-0.89,-0.03,13.82,-68.36,9.43,28.77
118877,-0.34,-0.87,-0.01,8.48,-74.99,10.60,28.77
118887,-0.32,-0.88,0.02,7.06,-79.77,12.29,28.91
118897,-0.29,-0.90,0.02,8.94,-81.74,13.89,28.81
118907,-0.28,-0.91,0.02,13.34,-81.53,15.99,28.81
118917,-0.28,-0.89,-0.02,18.29,-78.05,19.61,28.86
118927,-0.28,-0.88,-0.05,20.00,-72.21,24.84,28.86
118937,-0.26,-0.89,-0.07,19.76,-68.47,28.89,28.91
118947,-0.22,-0.92,-0.11,13.37,-65.41,25.50,28.91
118957,-0.21,-0.93,-0.08,0.92,-69.84,18.11,28.86
118967,-0.19,-0.94,-0.02,-10.37,-83.11,5.73,28.77
118977,-0.21,-0.92,-0.00,-18.59,-95.44,-5.32,28.81
118987,-0.25,-0.92,0.01,-20.87,-105.85,-12.53,28.91
118997,-0.30,-0.92,0.02,-18.87,-110.46,-11.76,28.81
119007,-0.32,-0.93,0.02,-16.81,-105.31,-5.58,28.86
119017,-0.32,-0.94,0.05,-13.08,-96.17,3.59,28.77
119027,-0.33,-0.96,0.09,-5.11,-88.68,13.88,28.81
119037,-0.33,-0.99,0.08,4.82,-82.71,23.79,28.91
119047,-0.31,-1.00,0.06,14.23,-79.45,32.89,28.86
119057,-0.29,-1.01,0.04,22.59,-79.55,39.89,28.86
119067,-0.26,-1.00,-0.02,24.25,-79.21,40.90,28.91
119077,-0.24,-0.97,-0.04,20.12,-82.75,38.21,28.91
119087,-0.23,-0.93,-0.04,14.48,-91.06,35.02,28.81
119097,-0.20,-0.91,-0.08,10.08,-97.21,31.15,28.86
119107,-0.18,-0.90,-0.09,6.94,-99.92,27.48,28.86
119117,-0.20,-0.91,-0.08,4.10,-103.02,23.90,28.81
119127,-0.22,-0.91,-0.07,1.27,-107.27,22.26,28.81
119137,-0.22,-0.92,-0.07,-1.30,-109.34,21.68,28.86
119147,-0.23,-0.92,-0.07,-2.98,-107.85,23.55,28.86
119157,-0.24,-0.92,-0.07,-3.23,-106.51,25.54,28.81
119167,-0.20,-0.94,-0.07,-4.70,-103.61,23.32,28.81
119177,-0.20,-0.93,-0.07,-8.50,-103.63,19.43,28.81
119187,-0.21,-0.94,-0.04,-13.22,-109.62,15.70,28.86
119197,-0.22,-0.95,-0.04,-15.41,-115.33,11.31,28.86
119207,-0.22,-0.97,-0.05,-15.80,-115.79,7.45,28.81
119217,-0.24,-0.97,-0.04,-16.46,-114.95,5.90,28.81
119227,-0.25,-0.97,-0.03,-17.47,-115.95,6.81,28.86
119237,-0.25,-0.97,-0.05,-18.95,-113.50,10.66,28.86
119247,-0.24,-0.97,-0.04,-18.19,-109.93,16.22,28.91
119257,-0.20,-0.97,-0.03,-16.50,-105.85,20.37,28.81
119267,-0.17,-0.98,-0.05,-16.02,-100.95,21.65,28.81
119277,-0.17,-0.99,-0.01,-17.90,-99.45,19.97,28.72
119287,-0.14,-1.00,-0.01,-18.75,-102.95,16.47,28.77
119297,-0.12,-1.03,-0.01,-20.44,-104.51,11.92,28.81
119307,-0.11,-1.04,0.00,-19.66,-106.40,6.47,28.81
119317,-0.09,-1.06,-0.00,-19.15,-106.92,0.88,28.77
119327,-0.08,-1.06,-0.00,-19.55,-108.94,-6.43,28.77
119337,-0.09,-1.06,-0.01,-20.66,-113.04,-11.31,28.86
119347,-0.09,-1.05,-0.02,-20.22,-115.92,-14.03,28.91
119357,-0.11,-1.04,-0.04,-16.86,-114.40,-12.65,28.81
119367,-0.10,-1.03,-0.05,-12.66,-108.83,-8.48,28.86
119377,-0.09,-1.03,-0.07,-10.44,-101.47,-4.44,28.77
119387,-0.07,-1.02,-0.06,-9.50,-96.11,-1.28,28.81
119397,-0.06,-1.04,-0.05,-9.13,-93.48,-0.88,28.81
119407,-0.06,-1.04,-0.06,-8.85,-92.27,-1.43,28.86
119417,-0.06,-1.05,-0.04,-6.62,-91.02,-2.04,28.86
119427,-0.06,-1.04,-0.05,-4.68,-87.99,-2.37,28.77
119437,-0.06,-1.05,-0.05,-3.55,-84.96,-2.44,28.91
119447,-0.05,-1.04,-0.04,-5.09,-81.17,-3.67,28.81
119457,-0.06,-1.03,-0.02,-6.20,-78.56,-4.41,28.91
119467,-0.08,-1.03,-0.01,-5.84,-77.51,-4.90,28.86
119477,-0.10,-1.03,-0.01,-4.22,-78.12,-4.19,28.91
119487,-0.11,-1.05,-0.01,-3.75,-75.19,-3.18,28.81
119497,-0.13,-1.07,0.03,-1.84,-73.57,-1.85,28.86
119507,-0.13,-1.08,0.05,-0.28,-74.59,-2.11,28.77
119517,-0.13,-1.09,0.06,0.87,-75.60,-2.75,28.72
119527,-0.14,-1.09,0.05,3.22,-74.24,-3.09,28.81
119537,-0.13,-1.09,0.03,5.95,-68.57,-6.11,28.81
119547,-0.15,-1.08,0.04,5.93,-66.00,-11.20,28.77
119557,-0.19,-1.06,0.04,2.51,-70.21,-16.35,28.86
119567,-0.22,-1.04,0.06,-0.79,-79.47,-19.39,28.81
119577,-0.23,-1.04,0.08,-0.13,-87.63,-19.40,28.81
119587,-0.24,-1.04,0.06,3.67,-90.29,-16.77,28.86
119597,-0.23,-1.04,0.05,8.89,-89.53,-11.18,28.77
119607,-0.21,-1.04,0.05,15.50,-82.92,-4.33,28.81
119617,-0.19,-1.04,0.02,19.83,-72.05,1.95,28.81
119627,-0.18,-1.02,0.01,21.44,-63.94,7.11,28.91
119637,-0.14,-0.99,0.01,20.46,-59.72,7.92,28.95
119647,-0.14,-0.97,0.02,18.40,-60.99,5.44,28.86
119657,-0.14,-0.95,0.02,17.49,-66.63,2.60,28.81
119667,-0.16,-0.93,0.02,16.38,-74.97,1.44,28.91
119677,-0.18,-0.93,0.01,15.60,-82.85,3.78,28.86
119687,-0.19,-0.93,-0.00,15.76,-84.58,10.23,28.77
119697,-0.18,-0.92,-0.01,16.50,-80.25,20.44,28.81
119707,-0.17,-0.93,-0.01,18.95,-70.08,32.00,28.72
119717,-0.15,-0.95,-0.00,20.50,-57.65,42.09,28.86
119727,-0.13,-0.97,0.03,22.02,-47.93,47.82,28.86
119737,-0.11,-0.98,0.05,23.37,-43.97,49.33,28.86
119747,-0.09,-0.98,0.06,21.65,-45.31,45.60,28.72
119757,-0.09,-0.97,0.08,17.92,-51.11,36.13,28.81
119767,-0.13,-0.96,0.09,16.08,-64.05,28.38,28.86
119777,-0.16,-0.96,0.05,14.65,-77.80,26.27,28.77
119787,-0.16,-0.95,0.02,13.40,-84.27,27.14,28.81
119797,-0.16,-0.96,0.01,12.17,-80.70,29.76,28.81
119807,-0.16,-0.96,0.05,10.85,-73.20,33.77,28.81
119817,-0.15,-0.96,0.10,11.51,-67.84,38.40,28.86
119827,-0.12,-0.97,0.08,13.59,-62.49,40.31,28.72
119837,-0.10,-0.97,0.09,16.78,-56.37,39.16,28.81
119847,-0.10,-0.97,0.09,17.94,-55.60,33.53,28.81
119857,-0.12,-0.97,0.09,15.13,-59.95,25.09,28.86
119867,-0.15,-0.94,0.09,9.92,-69.41,16.38,28.86
119877,-0.19,-0.94,0.06,6.98,-78.61,11.24,28.81
119887,-0.21,-0.94,0.04,4.52,-83.61,10.02,28.81
119897,-0.24,-0.93,0.05,3.79,-86.63,13.08,28.77
119907,-0.23,-0.94,0.06,5.21,-84.95,20.46,28.95
119917,-0.20,-0.94,0.06,6.52,-76.40,26.89,28.81
119927,-0.17,-0.92,0.08,7.43,-66.53,32.39,28.81
119937,-0.17,-0.92,0.10,9.29,-62.30,36.34,28.91
119947,-0.15,-0.92,0.10,11.38,-62.05,39.21,28.86
119957,-0.14,-0.92,0.08,14.98,-64.27,43.04,28.95
119967,-0.13,-0.92,0.05,17.09,-64.78,46.88,28.81
119977,-0.11,-0.93,0.04,16.42,-61.56,48.83,28.72
119987,-0.10,-0.93,0.04,13.64,-58.73,48.45,28.72
119997,-0.07,-0.95,0.07,9.60,-58.02,47.02,28.86
120007,-0.06,-0.95,0.07,6.33,-59.47,44.46,28.72
120017,-0.04,-0.96,0.09,3.62,-60.44,40.32,28.81
120027,-0.03,-0.96,0.11,3.00,-63.43,35.98,28.77
120037,-0.04,-0.95,0.11,3.32,-67.45,32.55,28.77
120047,-0.04,-0.94,0.09,4.03,-68.76,32.07,28.86
120057,-0.04,-0.92,0.07,5.08,-66.89,34.98,28.72
120067,-0.02,-0.91,0.04,5.38,-60.08,39.46,28.81
120077,-0.00,-0.91,0.04,5.45,-51.83,44.77,28.86
120087,0.02,-0.92,0.02,4.65,-44.19,49.48,28.77
120097,0.05,-0.95,0.03,1.87,-37.60,50.89,28.81
120107,0.07,-0.97,0.08,-1.30,-34.21,48.95,28.81
120117,0.08,-0.99,0.12,-2.72,-36.96,44.90,28.77
120127,0.11,-1.01,0.11,-4.49,-40.85,39.10,28.86
120137,0.14,-1.02,0.12,-7.02,-43.08,31.28,28.81
120147,0.16,-1.00,0.15,-8.40,-42.97,21.31,28.81
120157,0.17,-1.01,0.15,-9.42,-42.14,10.23,28.81
120167,0.15,-1.00,0.16,-10.95,-40.39,0.31,28.77
120177,0.12,-0.99,0.17,-12.43,-42.95,-8.65,28.81
120187,0.09,-0.98,0.16,-13.77,-43.30,-16.02,28.81
120197,0.06,-0.97,0.17,-14.36,-41.10,-21.44,28.81
120207,0.03,-0.96,0.16,-15.56,-38.70,-25.02,28.86
120217,-0.00,-0.96,0.17,-16.79,-37.12,-27.97,28.86
120227,-0.03,-0.94,0.18,-17.97,-36.15,-28.66,28.81
120237,-0.06,-0.93,0.18,-17.89,-35.18,-28.21,28.81
120247,-0.07,-0.93,0.20,-17.38,-33.11,-27.50,28.86
120257,-0.07,-0.92,0.20,-16.77,-29.80,-27.92,28.77
120267,-0.11,-0.91,0.20,-16.17,-29.17,-26.24,28.81
120277,-0.15,-0.92,0.21,-15.12,-31.98,-22.23,28.81
120287,-0.17,-0.92,0.21,-14.14,-31.69,-16.22,28.86
120297,-0.21,-0.92,0.21,-10.66,-28.45,-8.76,28.77
120307,-0.26,-0.92,0.25,-6.99,-29.34,1.30,28.86
120317,-0.25,-0.93,0.25,-2.79,-26.02,11.85,28.81
120327,-0.24,-0.95,0.27,3.43,-17.87,20.40,28.81
120337,-0.23,-0.95,0.28,10.13,-12.19,27.89,28.91
120347,-0.20,-0.95,0.24,14.17,-12.23,33.61,28.86
120357,-0.15,-0.95,0.20,15.48,-13.29,35.99,28.81
120367,-0.12,-0.96,0.18,15.80,-11.05,34.96,28.81
120377,-0.10,-0.95,0.17,13.57,-14.21,32.60,28.77
120387,-0.10,-0.96,0.14,8.66,-21.59,29.31,28.77
120397,-0.06,-0.98,0.13,3.11,-20.70,23.90,28.86
120407,-0.06,-1.00,0.17,-0.29,-19.16,17.01,28.72
120417,-0.07,-1.01,0.21,-2.72,-22.79,10.56,28.81
120427,-0.07,-1.02,0.24,-2.97,-31.12,4.56,28.67
120437,-0.05,-1.02,0.23,-1.72,-35.16,-1.02,28.77
120447,-0.03,-1.02,0.21,1.05,-34.03,-6.56,28.72
120457,-0.04,-1.01,0.19,1.94,-30.63,-11.63,28.81
120467,-0.05,-0.98,0.19,0.37,-29.27,-16.29,28.81
120477,-0.05,-0.97,0.18,-2.73,-31.60,-20.35,28.77
120487,-0.05,-0.97,0.17,-6.46,-33.16,-23.96,28.77
120497,-0.06,-0.97,0.16,-9.40,-34.18,-28.59,28.72
120507,-0.07,-0.97,0.18,-11.91,-36.85,-31.76,28.81
120517,-0.07,-0.98,0.18,-13.34,-37.60,-33.16,28.81
120527,-0.08,-0.98,0.21,-13.73,-36.82,-34.53,28.86
120537,-0.09,-0.97,0.21,-13.21,-36.73,-34.95,28.77
120547,-0.10,-0.96,0.22,-10.60,-36.60,-32.88,28.81
120557,-0.11,-0.96,0.22,-7.58,-34.95,-30.33,28.81
120567,-0.10,-0.93,0.20,-4.96,-31.36,-27.40,28.77
120577,-0.11,-0.92,0.20,-3.24,-27.82,-23.81,28.77
120587,-0.13,-0.90,0.21,-3.27,-26.98,-19.98,28.81
120597,-0.13,-0.90,0.21,-3.25,-29.93,-15.29,28.81
120607,-0.13,-0.90,0.21,-2.09,-31.34,-9.40,28.86
120617,-0.13,-0.91,0.19,0.37,-29.60,-2.90,28.86
120627,-0.12,-0.91,0.20,3.18,-24.67,3.57,28.86
120637,-0.12,-0.91,0.22,5.74,-21.62,10.56,28.91
120647,-0.10,-0.91,0.19,7.50,-18.50,16.69,28.81
120657,-0.09,-0.91,0.19,9.37,-15.20,22.11,28.86
120667,-0.07,-0.92,0.18,11.02,-13.26,26.31,28.86
120677,-0.07,-0.92,0.19,12.68,-13.89,30.41,28.81
120687,-0.05,-0.92,0.19,14.51,-15.47,33.79,28.81
120697,-0.03,-0.93,0.15,14.58,-12.92,35.00,28.81
120707,-0.02,-0.94,0.15,12.63,-9.32,34.91,28.77
120717,-0.02,-0.95,0.17,9.49,-9.64,33.74,28.77
120727,-0.01,-0.97,0.18,6.92,-11.47,31.47,28.81
120737,0.01,-1.00,0.19,6.18,-12.54,28.08,28.81
120747,0.02,-1.00,0.20,5.91,-12.54,23.18,28.77
120757,0.03,-1.01,0.21,6.34,-13.12,17.03,28.86
120767,0.03,-1.01,0.21,4.64,-13.63,9.98,28.91
120777,0.03,-1.00,0.22,3.19,-16.88,2.15,28.81
120787,0.02,-0.99,0.21,1.21,-18.53,-4.27,28.77
120797,-0.01,-0.97,0.21,0.08,-19.73,-9.17,28.86
120807,-0.03,-0.96,0.21,-0.17,-22.11,-12.47,28.81
120817,-0.05,-0.95,0.20,-0.69,-23.05,-14.06,28.81
120827,-0.06,-0.94,0.19,-1.43,-22.15,-13.39,28.81
120837,-0.07,-0.94,0.19,-1.71,-19.99,-13.15,28.86
120847,-0.10,-0.93,0.19,-2.84,-16.50,-11.47,28.77
120857,-0.10,-0.92,0.20,-2.78,-16.87,-9.17,28.81
120867,-0.10,-0.92,0.21,-2.33,-15.85,-6.90,28.91
120877,-0.10,-0.93,0.21,-1.40,-14.38,-5.47,28.81
120887,-0.12,-0.93,0.23,-0.85,-13.66,-3.44,28.86
120897,-0.12,-0.93,0.23,0.27,-13.31,-1.28,28.77
120907,-0.11,-0.93,0.22,1.54,-14.27,1.14,28.81
120917,-0.11,-0.94,0.22,2.35,-13.54,2.56,28.81
120927,-0.11,-0.92,0.23,3.50,-12.38,3.63,28.77
120937,-0.10,-0.93,0.22,4.40,-11.92,4.02,28.86
120947,-0.10,-0.92,0.20,4.50,-11.86,3.51,28.81
120957,-0.11,-0.91,0.21,3.72,-13.26,2.95,28.81
120967,-0.11,-0.91,0.19,2.69,-15.53,3.42,28.86
120977,-0.12,-0.91,0.18,1.82,-17.69,4.47,28.77
120987,-0.12,-0.93,0.20,1.05,-18.70,5.16,28.72
120997,-0.11,-0.93,0.19,0.73,-17.49,6.23,28.72
121007,-0.11,-0.93,0.20,1.33,-16.14,7.97,28.81
121017,-0.11,-0.93,0.20,2.13,-14.68,9.32,28.77
121027,-0.11,-0.93,0.20,3.11,-13.92,10.56,28.86
121037,-0.11,-0.93,0.21,4.14,-13.48,11.62,28.81
121047,-0.11,-0.95,0.19,4.98,-15.32,12.98,28.72
121057,-0.11,-0.94,0.19,5.39,-16.10,14.57,28.91
121067,-0.10,-0.95,0.20,5.17,-15.89,15.74,28.77
121077,-0.08,-0.94,0.21,4.48,-15.12,15.22,28.91
121087,-0.07,-0.94,0.21,4.96,-15.21,14.57,28.81
121097,-0.07,-0.94,0.21,5.41,-14.53,14.04,28.77
121107,-0.06,-0.94,0.20,5.97,-14.17,13.35,28.77
121117,-0.06,-0.94,0.18,6.18,-14.03,12.24,28.86
121127,-0.06,-0.94,0.19,5.05,-15.31,11.04,28.72
121137,-0.05,-0.94,0.17,3.44,-16.13,9.55,28.81
121147,-0.06,-0.95,0.17,1.04,-15.95,7.94,28.77
121157,-0.06,-0.94,0.19,-1.18,-16.40,5.63,28.77
121167,-0.07,-0.95,0.22,-1.86,-18.37,3.63,28.81
121177,-0.07,-0.95,0.22,-1.37,-19.75,2.85,28.81
121187,-0.06,-0.96,0.22,-0.02,-19.86,1.40,28.86
121197,-0.07,-0.95,0.22,0.19,-18.32,-0.81,28.86
121207,-0.09,-0.95,0.23,0.26,-19.42,-2.08,28.81
121217,-0.09,-0.95,0.23,0.89,-22.19,-2.42,28.81
121227,-0.09,-0.94,0.21,1.76,-21.40,-1.87,28.81
121237,-0.09,-0.93,0.20,2.21,-18.74,-1.77,28.86
121247,-0.10,-0.92,0.20,1.30,-17.20,-1.40,28.81
121257,-0.11,-0.91,0.19,0.21,-18.43,-0.67,28.81
121267,-0.11,-0.92,0.19,-0.73,-19.64,1.33,28.91
121277,-0.10,-0.92,0.18,-1.40,-18.85,2.27,28.77
121287,-0.10,-0.93,0.19,-1.93,-17.13,2.53,28.77
121297,-0.11,-0.93,0.22,-2.13,-17.79,2.59,28.81
121307,-0.11,-0.92,0.22,-1.29,-19.72,3.44,28.81
121317,-0.10,-0.92,0.21,0.40,-19.60,5.24,28.86
121327,-0.09,-0.91,0.20,3.25,-17.77,7.08,28.77
121337,-0.09,-0.92,0.18,5.37,-13.88,8.41,28.81
121347,-0.09,-0.92,0.16,5.66,-10.35,9.18,28.81
121357,-0.08,-0.92,0.16,4.39,-9.32,9.85,28.77
121367,-0.08,-0.91,0.16,3.53,-10.02,10.71,28.86
121377,-0.06,-0.91,0.15,3.18,-9.81,9.30,28.77
121387,-0.05,-0.90,0.15,1.11,-9.26,6.19,28.81
121397,-0.07,-0.89,0.17,-1.76,-12.66,4.07,28.91
121407,-0.07,-0.89,0.18,-4.08,-18.43,4.00,28.81
121417,-0.05,-0.92,0.17,-4.47,-20.39,2.50,28.86
121427,-0.04,-0.92,0.16,-5.79,-15.84,-0.47,28.81
121437,-0.05,-0.91,0.19,-7.15,-14.02,-3.52,28.81
121447,-0.06,-0.92,0.20,-9.16,-15.65,-6.92,28.86
121457,-0.07,-0.92,0.20,-10.98,-20.62,-8.56,28.77
121467,-0.08,-0.92,0.21,-11.75,-24.45,-10.04,28.91
121477,-0.09,-0.92,0.21,-9.87,-25.31,-9.15,28.72
121487,-0.11,-0.92,0.21,-7.64,-23.79,-5.86,28.77
121497,-0.10,-0.93,0.21,-6.75,-21.79,-2.34,28.86
121507,-0.10,-0.93,0.19,-6.84,-17.69,1.27,28.86
121517,-0.11,-0.94,0.21,-5.88,-13.51,4.62,28.72
121527,-0.10,-0.95,0.20,-4.56,-11.55,7.16,28.81
121537,-0.10,-0.96,0.19,-4.69,-11.64,8.09,28.77
121547,-0.09,-0.97,0.21,-6.06,-13.42,8.34,28.77
121557,-0.08,-0.96,0.21,-5.44,-16.12,9.02,28.81
121567,-0.08,-0.98,0.20,-4.69,-17.69,9.35,28.81
121577,-0.08,-0.99,0.19,-3.87,-17.40,9.95,28.81
121587,-0.09,-0.99,0.19,-2.34,-15.28,11.05,28.77
121597,-0.09,-1.00,0.19,-0.69,-12.97,12.79,28.81
121607,-0.10,-0.99,0.18,0.62,-11.44,15.47,28.81
121617,-0.09,-1.00,0.17,1.17,-10.33,17.92,28.81
121627,-0.09,-1.01,0.18,1.34,-9.50,18.51,28.77
121637,-0.08,-1.01,0.19,1.00,-7.46,18.15,28.86
121647,-0.07,-1.01,0.20,0.56,-7.95,16.38,28.91
121657,-0.08,-0.99,0.20,1.50,-11.24,15.56,28.81
121667,-0.07,-0.99,0.19,3.66,-12.56,16.19,28.95
121677,-0.07,-0.98,0.15,5.89,-8.92,16.80,28.77
121687,-0.07,-0.97,0.16,7.35,-5.27,17.15,28.77
121697,-0.07,-0.96,0.15,6.00,-1.27,17.84,28.91
121707,-0.08,-0.97,0.16,3.61,-0.73,17.02,28.81
121717,-0.07,-0.98,0.17,0.60,-1.87,14.12,28.77
121727,-0.07,-0.98,0.18,-1.01,-5.05,10.71,28.77
121737,-0.07,-0.98,0.21,-1.06,-10.48,7.20,28.81
121747,-0.08,-0.98,0.23,0.05,-15.02,4.47,28.81
121757,-0.08,-0.98,0.23,2.73,-17.37,2.44,28.72
121767,-0.08,-0.98,0.20,4.99,-15.37,1.79,28.86
121777,-0.09,-0.97,0.17,5.92,-10.56,1.44,28.81
121787,-0.09,-0.96,0.18,5.81,-6.68,0.98,28.91
121797,-0.10,-0.95,0.18,3.88,-6.05,1.08,28.81
121807,-0.11,-0.94,0.19,2.21,-8.82,1.79,28.86
121817,-0.10,-0.94,0.17,2.56,-11.15,1.92,28.86
121827,-0.10,-0.95,0.16,3.81,-10.10,2.55,28.91
121837,-0.08,-0.94,0.17,3.76,-8.24,1.76,28.81
121847,-0.09,-0.95,0.18,1.54,-5.03,-0.64,28.86
121857,-0.09,-0.95,0.20,-0.26,-6.55,-3.31,28.77
121867,-0.10,-0.94,0.21,-0.89,-11.26,-5.11,28.81
121877,-0.10,-0.93,0.20,0.26,-13.51,-6.17,28.81
121887,-0.11,-0.94,0.18,1.80,-13.35,-5.90,28.86
121897,-0.12,-0.94,0.18,2.52,-12.61,-4.73,28.77
121907,-0.12,-0.93,0.19,2.31,-12.00,-2.95,28.77
121917,-0.12,-0.93,0.17,1.87,-10.44,-1.39,28.81
121927,-0.11,-0.94,0.17,0.89,-6.74,-0.26,28.81
121937,-0.12,-0.94,0.19,0.90,-5.24,-0.06,28.81
121947,-0.11,-0.94,0.21,1.25,-7.44,0.61,28.86
121957,-0.12,-0.94,0.21,2.76,-11.54,2.18,28.72
121967,-0.11,-0.95,0.19,5.27,-12.85,4.51,28.81
121977,-0.09,-0.95,0.17,6.44,-8.15,6.45,28.86
121987,-0.07,-0.95,0.17,6.05,-2.95,7.17,28.77
121997,-0.07,-0.95,0.18,4.23,-0.07,6.00,28.81
122007,-0.06,-0.95,0.18,2.50,-0.58,4.33,28.91
122017,-0.07,-0.96,0.19,2.07,-4.18,3.36,28.86
122027,-0.07,-0.97,0.20,3.34,-7.69,2.31,28.86
122037,-0.07,-0.97,0.20,4.46,-9.31,1.15,28.77
122047,-0.06,-0.97,0.20,4.55,-8.21,0.45,28.91
122057,-0.05,-0.97,0.19,4.41,-6.60,-0.31,28.81
122067,-0.06,-0.97,0.19,4.27,-4.34,-1.08,28.77
122077,-0.05,-0.96,0.17,4.04,-2.08,-1.50,28.86
122087,-0.05,-0.95,0.17,3.16,-1.31,-3.01,28.72
122097,-0.06,-0.96,0.19,2.57,-1.60,-4.24,28.91
122107,-0.07,-0.96,0.19,2.40,-3.90,-4.76,28.81
122117,-0.06,-0.96,0.20,2.11,-5.59,-5.55,28.77
122127,-0.07,-0.96,0.20,2.01,-4.79,-5.56,28.86
122137,-0.08,-0.95,0.21,2.76,-4.60,-5.19,28.81
122147,-0.08,-0.96,0.22,3.95,-2.85,-4.24,28.81
122157,-0.07,-0.95,0.21,4.88,-0.04,-4.89,28.77
122167,-0.09,-0.95,0.20,5.42,1.91,-5.42,28.77
122177,-0.10,-0.95,0.21,5.08,0.41,-4.38,28.81
122187,-0.11,-0.94,0.20,4.61,-2.67,-2.79,28.81
