Timestamp,Acce_X,Acce_Y,Acce_Z,Gyro_X,Gyro_Y,Gyro_Z,Temp
63707,-0.05,-1.15,0.19,15.81,-28.69,4.68,31.40
63717,-0.06,-1.16,0.17,20.80,-29.74,5.80,31.31
63727,-0.10,-1.16,0.13,22.69,-28.72,8.60,31.26
63737,-0.10,-1.15,0.12,23.13,-29.79,9.98,31.26
63747,-0.11,-1.15,0.12,21.95,-32.15,8.89,31.45
63757,-0.12,-1.15,0.12,20.82,-36.41,8.21,31.26
63767,-0.16,-1.14,0.13,20.95,-42.04,9.58,31.35
63777,-0.15,-1.15,0.11,22.31,-48.27,10.92,31.31
63787,-0.14,-1.15,0.12,22.89,-49.66,11.54,31.40
63797,-0.12,-1.19,0.14,25.53,-51.05,11.78,31.31
63807,-0.07,-1.23,0.16,27.75,-51.64,6.86,31.31
63817,-0.03,-1.23,0.17,28.55,-57.25,-4.33,31.31
63827,-0.05,-1.19,0.17,29.16,-66.25,-16.53,31.31
63837,-0.07,-1.14,0.13,31.18,-75.69,-26.11,31.31
63847,-0.10,-1.10,0.09,32.89,-81.18,-30.53,31.35
63857,-0.15,-1.08,0.06,34.37,-82.34,-30.00,31.45
63867,-0.17,-1.04,0.04,34.00,-80.08,-26.01,31.26
63877,-0.17,-1.04,0.05,31.22,-76.08,-20.50,31.26
63887,-0.18,-1.06,0.08,31.34,-74.66,-15.49,31.26
63897,-0.16,-1.04,0.13,32.57,-75.45,-14.12,31.35
63907,-0.17,-1.02,0.16,33.62,-79.47,-13.76,31.31
63917,-0.18,-0.94,0.16,38.42,-86.53,-11.48,31.31
63927,-0.18,-0.92,0.10,43.28,-89.39,-5.85,31.31
63937,-0.22,-0.91,0.03,47.44,-91.25,2.51,31.31
63947,-0.17,-0.91,-0.04,44.72,-88.62,7.34,31.31
63957,-0.18,-0.93,-0.05,34.18,-90.26,10.89,31.21
63967,-0.18,-0.93,-0.03,25.30,-94.60,16.69,31.26
63977,-0.16,-0.94,-0.00,21.53,-99.30,21.97,31.26
63987,-0.12,-0.95,0.01,21.44,-101.12,27.67,31.35
63997,-0.13,-0.93,0.03,25.06,-103.11,33.99,31.26
64007,-0.12,-0.97,0.02,29.31,-106.58,42.71,31.35
64017,-0.09,-1.00,-0.00,31.71,-105.05,50.27,31.35
64027,-0.05,-1.02,-0.01,30.92,-104.56,55.80,31.35
64037,-0.02,-1.05,-0.03,28.69,-105.21,58.25,31.31
64047,0.03,-1.05,-0.03,25.33,-104.68,55.17,31.40
64057,0.04,-1.10,-0.01,23.32,-109.37,49.90,31.40
64067,0.08,-1.07,-0.03,20.29,-114.68,38.36,31.31
64077,0.09,-1.03,-0.01,13.50,-125.04,24.73,31.21
64087,0.04,-1.03,-0.04,12.24,-136.35,18.96,31.31
64097,0.04,-1.04,-0.09,13.63,-135.37,18.53,31.35
64107,0.02,-1.09,-0.10,14.08,-129.95,21.65,31.26
64117,-0.01,-1.14,-0.06,11.47,-122.26,21.61,31.26
64127,-0.04,-1.15,0.05,9.66,-119.21,20.86,31.35
64137,-0.05,-1.11,0.07,10.26,-121.82,18.87,31.45
64147,-0.09,-1.07,0.12,19.30,-133.36,17.48,31.35
64157,-0.17,-1.03,0.09,24.77,-141.37,21.64,31.31
64167,-0.22,-1.03,0.04,31.99,-143.20,34.37,31.31
64177,-0.23,-1.06,0.03,41.68,-140.92,51.77,31.31
64187,-0.22,-1.09,0.01,44.67,-133.58,68.31,31.21
64197,-0.18,-1.19,0.00,50.01,-125.04,76.58,31.31
64207,-0.14,-1.17,0.04,49.11,-122.22,78.76,31.21
64217,-0.12,-1.13,0.07,51.40,-134.24,78.22,31.31
64227,-0.04,-1.06,-0.02,55.48,-145.02,75.13,31.35
64237,0.00,-1.00,-0.14,55.39,-151.60,72.15,31.26
64247,-0.03,-1.01,-0.23,53.54,-153.82,75.11,31.35
64257,0.01,-1.03,-0.31,49.07,-143.34,79.02,31.26
64267,-0.02,-1.03,-0.29,33.56,-133.96,81.54,31.26
64277,-0.03,-1.05,-0.25,20.05,-125.85,83.99,31.26
64287,-0.00,-1.07,-0.16,13.69,-119.45,85.73,31.31
64297,0.07,-1.07,-0.10,12.04,-118.27,85.11,31.21
64307,0.13,-1.06,-0.08,13.31,-115.71,79.32,31.31
64317,0.17,-1.06,-0.06,10.84,-119.40,68.16,31.21
64327,0.10,-1.06,-0.04,9.65,-129.53,60.90,31.40
64337,0.07,-1.02,-0.11,9.51,-133.93,60.52,31.31
64347,0.09,-1.03,-0.15,7.23,-130.23,64.53,31.26
64357,0.10,-1.02,-0.16,5.56,-117.42,69.07,31.35
64367,0.10,-1.02,-0.15,1.35,-106.66,70.66,31.26
64377,0.12,-1.04,-0.13,-3.82,-102.54,68.46,31.26
64387,0.14,-1.05,-0.06,-5.63,-101.02,65.98,31.31
64397,0.19,-1.06,-0.08,-5.82,-103.18,60.89,31.35
64407,0.21,-1.03,-0.07,-8.43,-103.15,53.43,31.31
64417,0.20,-1.03,-0.08,-13.92,-102.42,47.11,31.31
64427,0.19,-1.05,-0.04,-19.18,-102.57,43.94,31.31
64437,0.20,-1.07,-0.01,-21.59,-97.03,41.63,31.31
64447,0.20,-1.09,0.02,-23.52,-93.87,38.32,31.31
64457,0.13,-1.07,0.06,-25.43,-91.85,38.22,31.31
64467,0.06,-1.03,0.08,-22.45,-91.10,42.55,31.35
64477,0.04,-1.01,0.06,-18.38,-88.37,51.26,31.26
64487,0.06,-1.00,0.02,-14.41,-78.89,58.92,31.26
64497,0.11,-1.05,0.01,-15.58,-71.00,62.26,31.26
64507,0.13,-1.08,0.02,-19.20,-67.09,63.09,31.35
64517,0.14,-1.10,0.05,-23.17,-64.01,61.97,31.21
64527,0.13,-1.10,0.08,-24.56,-64.47,60.34,31.31
64537,0.14,-1.09,0.07,-23.79,-62.51,59.66,31.31
64547,0.15,-1.08,0.08,-24.40,-58.72,56.79,31.31
64557,0.12,-1.11,0.09,-24.29,-57.83,55.50,31.31
64567,0.13,-1.12,0.10,-25.30,-52.50,53.79,31.31
64577,0.10,-1.14,0.14,-27.41,-51.15,50.34,31.31
64587,0.05,-1.15,0.19,-28.39,-51.69,48.02,31.26
64597,0.03,-1.15,0.23,-24.32,-52.44,48.15,31.35
64607,0.03,-1.14,0.21,-18.40,-50.68,49.39,31.26
64617,0.01,-1.07,0.17,-17.60,-47.78,49.95,31.26
64627,-0.03,-1.06,0.16,-18.40,-47.40,50.78,31.26
64637,-0.04,-1.06,0.14,-20.05,-44.85,51.06,31.35
64647,-0.04,-1.05,0.13,-24.27,-41.74,49.30,31.31
64657,-0.07,-1.09,0.15,-27.88,-40.69,50.54,31.31
64667,-0.09,-1.10,0.18,-28.84,-39.42,53.98,31.31
64677,-0.09,-1.09,0.20,-25.88,-34.34,57.68,31.31
64687,-0.07,-1.06,0.23,-21.34,-28.76,60.41,31.31
64697,-0.08,-1.01,0.23,-18.62,-26.40,61.74,31.31
64707,-0.12,-1.02,0.22,-17.11,-25.76,62.34,31.26
64717,-0.15,-1.02,0.20,-14.97,-24.15,64.80,31.26
64727,-0.17,-1.03,0.22,-9.58,-25.70,66.41,31.26
64737,-0.17,-1.03,0.19,-10.21,-23.59,67.01,31.26
64747,-0.17,-1.00,0.22,-13.02,-19.45,64.25,31.17
64757,-0.18,-0.98,0.26,-15.44,-18.54,60.33,31.26
64767,-0.17,-0.92,0.25,-14.77,-15.52,53.97,31.31
64777,-0.16,-0.85,0.25,-13.87,-14.39,42.06,31.31
64787,-0.23,-0.83,0.21,-12.98,-23.92,30.47,31.21
64797,-0.30,-0.88,0.14,-11.24,-33.23,24.73,31.21
64807,-0.35,-0.94,0.09,-15.53,-34.56,23.88,31.31
64817,-0.32,-0.96,0.13,-23.31,-27.25,23.32,31.31
64827,-0.29,-0.93,0.21,-32.89,-19.36,18.65,31.35
64837,-0.27,-0.93,0.30,-35.78,-19.34,12.03,31.26
64847,-0.24,-0.95,0.33,-31.05,-22.32,3.80,31.35
64857,-0.28,-0.98,0.32,-25.89,-28.76,-4.23,31.26
64867,-0.37,-1.00,0.32,-19.82,-39.59,-5.52,31.31
64877,-0.41,-0.99,0.28,-15.38,-46.61,-1.56,31.26
64887,-0.39,-0.99,0.23,-13.50,-42.83,3.63,31.31
64897,-0.36,-0.97,0.22,-16.11,-32.08,7.94,31.31
64907,-0.35,-1.00,0.21,-20.18,-23.31,12.56,31.21
64917,-0.34,-1.01,0.21,-25.32,-20.34,15.01,31.21
64927,-0.31,-1.01,0.24,-28.83,-22.52,13.99,31.21
64937,-0.30,-1.06,0.25,-29.30,-27.84,13.02,31.31
64947,-0.27,-1.08,0.27,-25.31,-31.13,11.48,31.31
64957,-0.23,-1.08,0.26,-23.01,-31.16,9.11,31.26
64967,-0.21,-1.06,0.24,-22.82,-30.45,6.82,31.26
64977,-0.19,-1.05,0.23,-24.03,-30.18,3.75,31.35
64987,-0.16,-1.06,0.22,-24.37,-30.12,0.20,31.35
64997,-0.14,-1.04,0.22,-24.87,-28.95,-4.36,31.31
65007,-0.14,-1.05,0.21,-22.47,-28.46,-8.24,31.26
65017,-0.16,-1.04,0.17,-22.80,-26.76,-12.44,31.26
65027,-0.20,-1.03,0.18,-26.07,-27.16,-15.67,31.31
65037,-0.26,-1.03,0.21,-27.86,-30.15,-14.76,31.21
65047,-0.30,-1.02,0.23,-26.87,-30.18,-9.21,31.21
65057,-0.31,-1.03,0.26,-21.15,-25.61,-0.24,31.31
65067,-0.26,-1.03,0.29,-13.07,-18.69,7.01,31.31
65077,-0.21,-1.03,0.27,-6.31,-10.12,11.02,31.31
65087,-0.17,-1.05,0.27,-1.92,-7.82,11.40,31.35
65097,-0.13,-1.05,0.24,0.00,-8.15,8.85,31.35
65107,-0.11,-1.04,0.21,-0.61,-10.76,3.75,31.35
65117,-0.09,-1.02,0.17,-3.32,-12.56,-2.91,31.26
65127,-0.12,-1.00,0.18,-4.66,-14.10,-9.22,31.40
65137,-0.17,-1.00,0.17,-8.87,-17.37,-13.31,31.26
65147,-0.21,-0.99,0.20,-11.41,-17.47,-12.96,31.26
65157,-0.22,-1.01,0.21,-9.79,-14.04,-8.67,31.40
65167,-0.20,-1.00,0.26,-5.82,-8.60,-5.25,31.21
65177,-0.20,-0.99,0.27,-0.23,-5.91,-2.73,31.40
65187,-0.19,-0.97,0.24,4.38,-3.03,-1.09,31.31
65197,-0.18,-0.95,0.21,7.11,-3.04,-1.11,31.31
65207,-0.18,-0.94,0.15,5.99,-3.91,-2.13,31.31
65217,-0.17,-0.95,0.13,1.79,-5.35,-2.95,31.35
65227,-0.15,-0.95,0.12,-3.62,-4.03,-3.24,31.26
65237,-0.12,-0.97,0.14,-7.13,-0.08,-2.38,31.35
65247,-0.08,-0.98,0.19,-7.85,5.66,-3.08,31.35
65257,-0.05,-0.98,0.22,-6.36,10.08,-7.61,31.26
65267,-0.05,-0.97,0.22,-5.13,8.37,-14.18,31.35
65277,-0.09,-0.98,0.20,-3.56,3.02,-18.66,31.26
65287,-0.10,-0.98,0.15,-2.75,1.30,-19.98,31.40
65297,-0.11,-0.98,0.15,-4.11,5.06,-19.17,31.31
65307,-0.11,-0.99,0.16,-6.10,12.08,-17.15,31.31
65317,-0.08,-1.02,0.16,-7.37,19.77,-16.18,31.21
65327,-0.09,-1.01,0.18,-8.69,23.38,-18.94,31.21
65337,-0.13,-1.02,0.21,-8.53,20.33,-21.20,31.21
65347,-0.16,-1.05,0.22,-6.12,16.85,-20.04,31.35
65357,-0.16,-1.06,0.21,-1.23,16.95,-16.28,31.26
65367,-0.14,-1.06,0.22,2.10,22.70,-12.54,31.26
65377,-0.10,-1.07,0.23,3.41,28.18,-12.31,31.35
65387,-0.09,-1.09,0.25,3.49,29.85,-14.35,31.31
65397,-0.09,-1.13,0.24,4.52,27.47,-15.13,31.26
65407,-0.06,-1.16,0.24,7.82,26.99,-15.72,31.26
65417,-0.02,-1.18,0.23,11.35,30.34,-18.59,31.31
65427,-0.00,-1.17,0.24,12.15,32.44,-24.92,31.31
65437,-0.01,-1.16,0.23,12.68,30.97,-31.07,31.31
65447,-0.02,-1.15,0.19,12.95,30.10,-35.37,31.31
65457,-0.03,-1.14,0.20,15.66,30.13,-37.59,31.31
65467,-0.04,-1.13,0.21,18.74,30.20,-40.27,31.31
65477,-0.03,-1.12,0.24,20.65,23.84,-42.60,31.26
65487,-0.04,-1.12,0.24,26.73,18.58,-43.15,31.26
65497,-0.04,-1.12,0.21,32.98,17.93,-42.15,31.26
65507,-0.04,-1.09,0.22,37.28,21.97,-41.69,31.26
65517,-0.06,-1.07,0.18,37.32,27.10,-41.27,31.12
65527,-0.09,-1.06,0.17,37.02,30.61,-40.03,31.26
65537,-0.11,-1.05,0.14,34.96,33.99,-37.00,31.35
65547,-0.11,-1.08,0.12,31.31,38.11,-34.15,31.31
65557,-0.09,-1.09,0.13,24.85,44.95,-31.34,31.31
65567,-0.05,-1.11,0.14,17.39,55.13,-30.00,31.40
65577,-0.01,-1.12,0.19,15.56,63.37,-29.24,31.21
65587,0.03,-1.10,0.25,17.80,68.20,-30.60,31.21
65597,0.02,-1.10,0.24,21.85,69.03,-32.61,31.31
65607,0.01,-1.08,0.23,27.56,67.23,-34.99,31.26
65617,-0.00,-1.07,0.19,30.69,65.02,-38.03,31.26
65627,-0.02,-1.05,0.13,29.76,63.40,-40.21,31.35
65637,-0.03,-1.05,0.09,26.52,63.79,-40.03,31.26
65647,-0.02,-1.04,0.08,23.61,67.76,-38.24,31.21
65657,0.00,-1.05,0.09,22.93,74.93,-36.37,31.35
65667,-0.01,-1.04,0.11,22.69,80.60,-35.58,31.26
65677,-0.01,-1.03,0.12,21.61,83.47,-35.56,31.40
65687,-0.02,-1.02,0.13,22.00,81.48,-35.94,31.31
65697,0.00,-1.00,0.12,22.50,80.95,-36.47,31.40
65707,0.01,-0.98,0.12,24.02,82.02,-37.48,31.31
65717,0.00,-0.97,0.10,24.62,84.92,-37.63,31.40
65727,-0.00,-0.98,0.09,24.80,88.28,-37.95,31.31
65737,-0.02,-0.98,0.08,22.96,88.69,-38.09,31.35
65747,-0.01,-0.98,0.08,20.83,89.17,-38.22,31.35
65757,-0.01,-0.99,0.08,19.11,89.91,-38.10,31.35
65767,0.02,-1.00,0.09,18.31,92.89,-38.39,31.26
65777,0.01,-0.98,0.09,15.86,96.22,-38.67,31.31
65787,-0.01,-0.97,0.09,14.39,95.79,-37.69,31.26
65797,-0.04,-1.00,0.10,13.50,99.05,-35.55,31.31
65807,-0.06,-1.09,0.12,13.76,101.32,-33.45,31.21
65817,-0.09,-1.15,0.19,13.85,105.03,-33.21,31.21
65827,-0.10,-1.17,0.24,17.14,103.89,-33.31,31.31
65837,-0.07,-1.18,0.26,21.93,103.14,-33.85,31.31
65847,-0.05,-1.16,0.27,29.11,102.33,-35.48,31.31
65857,-0.01,-1.13,0.23,36.35,100.69,-37.35,31.26
65867,0.00,-1.12,0.16,41.86,99.76,-39.58,31.26
65877,0.00,-1.11,0.09,41.22,99.90,-44.07,31.35
65887,0.01,-1.06,0.04,34.95,98.86,-49.03,31.35
65897,-0.01,-1.03,0.02,27.47,98.47,-53.18,31.35
65907,-0.01,-1.02,0.02,21.08,100.04,-57.10,31.31
65917,-0.02,-1.02,0.02,17.47,102.47,-60.87,31.35
65927,-0.02,-1.03,0.04,13.95,103.42,-64.88,31.31
65937,-0.04,-1.02,0.09,11.79,102.15,-69.10,31.31
65947,-0.06,-1.00,0.11,12.27,99.63,-70.43,31.31
65957,-0.08,-0.98,0.09,14.83,98.16,-68.41,31.31
65967,-0.08,-0.96,0.05,17.69,100.35,-64.03,31.31
65977,-0.07,-0.95,0.02,17.53,106.95,-57.80,31.31
65987,-0.06,-0.95,-0.00,16.51,113.54,-50.54,31.26
65997,-0.04,-0.97,-0.01,14.18,119.98,-46.34,31.26
66007,-0.02,-0.96,0.02,11.58,120.81,-45.73,31.35
66017,-0.03,-0.92,0.05,9.42,118.14,-43.60,31.26
66027,-0.06,-0.88,0.04,10.32,117.16,-35.64,31.35
66037,-0.06,-0.89,0.02,16.69,122.40,-21.76,31.31
66047,-0.04,-0.92,-0.01,25.56,135.86,-7.31,31.35
66057,0.01,-0.98,-0.04,28.39,150.93,-0.46,31.31
66067,0.09,-1.02,-0.04,24.84,158.95,-7.53,31.31
66077,0.15,-0.99,-0.04,16.39,154.02,-23.37,31.21
66087,0.15,-0.95,-0.03,7.53,138.58,-37.98,31.31
66097,0.12,-0.97,-0.04,2.82,127.81,-45.38,31.40
66107,0.06,-0.99,-0.07,4.84,124.77,-48.75,31.21
66117,0.05,-1.02,-0.07,2.97,131.76,-54.60,31.26
66127,-0.01,-1.04,-0.04,-5.76,135.44,-62.57,31.45
66137,-0.08,-1.05,0.01,-13.15,132.54,-67.64,31.35
66147,-0.13,-1.05,0.06,-17.10,127.84,-68.24,31.26
66157,-0.15,-1.07,0.09,-12.16,125.29,-65.35,31.35
66167,-0.15,-1.08,0.09,-9.09,131.85,-63.79,31.21
66177,-0.18,-1.10,0.12,-7.59,137.44,-63.76,31.26
66187,-0.21,-1.12,0.13,-9.78,137.56,-64.30,31.31
66197,-0.25,-1.13,0.18,-9.55,129.66,-63.96,31.31
66207,-0.25,-1.12,0.16,-9.03,122.10,-62.94,31.40
66217,-0.25,-1.11,0.15,-8.19,121.05,-63.02,31.31
66227,-0.26,-1.11,0.17,-7.53,120.39,-60.57,31.31
66237,-0.26,-1.12,0.17,-6.34,121.05,-57.77,31.31
66247,-0.26,-1.12,0.17,-7.58,122.50,-57.89,31.21
66257,-0.30,-1.11,0.20,-9.74,118.53,-56.42,31.26
66267,-0.32,-1.12,0.19,-11.56,118.18,-54.34,31.35
66277,-0.33,-1.13,0.24,-8.91,115.11,-49.36,31.35
66287,-0.33,-1.13,0.25,-6.85,114.34,-45.27,31.35
66297,-0.33,-1.12,0.28,-4.82,113.72,-43.28,31.31
66307,-0.31,-1.11,0.31,-1.92,109.11,-43.49,31.35
66317,-0.31,-1.09,0.28,-0.30,102.22,-45.98,31.40
66327,-0.34,-1.08,0.26,-0.13,94.62,-46.74,31.31
66337,-0.36,-1.08,0.23,-1.27,89.74,-42.81,31.31
66347,-0.38,-1.08,0.25,-2.63,90.44,-34.92,31.31
66357,-0.33,-1.07,0.27,0.31,94.45,-29.74,31.31
66367,-0.30,-1.07,0.29,-2.56,95.46,-30.60,31.31
66377,-0.30,-1.06,0.34,-4.29,91.16,-33.90,31.31
66387,-0.31,-1.05,0.36,-2.72,80.01,-37.14,31.35
66397,-0.29,-1.03,0.32,-2.67,73.72,-39.79,31.26
66407,-0.31,-1.02,0.32,-0.11,65.16,-41.13,31.26
66417,-0.32,-1.00,0.31,-1.26,61.64,-41.81,31.35
66427,-0.35,-1.00,0.32,-5.46,59.73,-41.25,31.31
66437,-0.37,-1.01,0.34,-8.80,57.54,-39.83,31.26
66447,-0.37,-0.99,0.36,-11.89,56.11,-38.00,31.31
66457,-0.38,-0.97,0.40,-10.21,50.76,-34.84,31.21
66467,-0.38,-0.98,0.40,-6.90,47.08,-28.83,31.31
66477,-0.38,-0.97,0.41,-1.98,42.68,-21.89,31.31
66487,-0.35,-0.97,0.38,3.05,40.45,-15.15,31.21
66497,-0.31,-0.95,0.36,4.70,39.98,-12.33,31.31
66507,-0.29,-0.93,0.37,2.69,37.18,-11.30,31.31
66517,-0.27,-0.90,0.38,2.24,31.42,-9.97,31.35
66527,-0.26,-0.90,0.34,2.27,27.17,-8.43,31.35
66537,-0.25,-0.91,0.32,1.25,25.93,-6.89,31.45
66547,-0.27,-0.90,0.35,-0.30,22.93,-5.05,31.26
66557,-0.25,-0.90,0.35,-2.26,19.78,-3.35,31.31
66567,-0.23,-0.91,0.36,-2.73,19.21,-1.03,31.35
66577,-0.20,-0.92,0.35,-2.50,18.28,0.40,31.35
66587,-0.18,-0.91,0.36,-2.38,15.99,2.25,31.31
66597,-0.15,-0.89,0.36,-1.72,13.71,3.95,31.31
66607,-0.13,-0.90,0.33,-3.04,13.45,3.66,31.31
66617,-0.14,-0.91,0.34,-5.40,11.14,2.83,31.31
66627,-0.15,-0.91,0.35,-6.51,6.18,3.53,31.31
66637,-0.13,-0.94,0.33,-7.49,3.83,5.41,31.31
66647,-0.13,-0.95,0.35,-7.91,2.35,7.48,31.26
66657,-0.10,-0.97,0.36,-6.77,4.24,9.70,31.26
66667,-0.07,-0.96,0.37,-5.87,4.40,10.87,31.26
66677,-0.07,-0.97,0.37,-5.66,3.68,12.05,31.35
66687,-0.07,-0.98,0.37,-3.65,1.27,13.91,31.40
66697,-0.04,-0.99,0.34,-3.39,-0.11,14.31,31.45
66707,-0.03,-0.99,0.34,-5.26,-0.08,12.88,31.26
66717,-0.02,-0.99,0.34,-7.25,-0.53,11.38,31.21
66727,-0.01,-1.01,0.36,-7.60,-0.81,10.24,31.31
66737,0.01,-1.01,0.36,-7.75,-0.94,7.68,31.31
66747,0.00,-1.00,0.36,-7.66,-2.24,5.25,31.31
66757,0.00,-1.00,0.36,-6.92,-4.98,4.05,31.31
66767,-0.01,-1.00,0.35,-6.70,-5.87,2.74,31.31
66777,-0.01,-1.00,0.36,-6.65,-5.15,2.89,31.26
66787,-0.02,-1.00,0.36,-6.35,-4.49,4.26,31.26
66797,-0.02,-1.01,0.35,-5.62,-3.42,5.53,31.17
66807,0.00,-1.01,0.35,-5.56,-1.81,6.31,31.17
66817,0.00,-1.01,0.37,-5.19,-1.24,6.80,31.35
66827,0.01,-1.00,0.37,-5.11,-1.56,6.66,31.35
66837,0.02,-1.00,0.37,-5.27,-2.94,5.33,31.26
66847,-0.02,-1.00,0.37,-4.33,-5.50,6.03,31.35
66857,-0.02,-1.00,0.38,-2.01,-5.50,8.31,31.21
66867,-0.02,-1.00,0.37,-0.35,-4.27,11.08,31.31
66877,-0.01,-0.99,0.36,-0.56,-2.92,12.42,31.21
66887,-0.03,-0.98,0.37,-0.78,-2.43,14.11,31.21
66897,-0.05,-0.98,0.39,1.48,-3.47,17.69,31.31
66907,-0.05,-0.98,0.37,4.75,-2.79,21.64,31.40
66917,-0.05,-0.98,0.36,6.05,-1.31,25.17,31.26
66927,-0.03,-1.00,0.36,6.18,-0.69,28.01,31.35
66937,-0.01,-1.00,0.35,6.05,1.05,28.32,31.26
66947,0.02,-1.01,0.36,5.00,1.25,26.76,31.35
66957,0.05,-1.02,0.36,4.30,0.73,22.89,31.35
66967,0.06,-1.01,0.36,3.89,-1.23,18.07,31.35
66977,0.07,-1.02,0.34,2.92,-3.17,13.11,31.26
66987,0.08,-1.02,0.33,1.40,-4.23,8.14,31.31
66997,0.08,-1.01,0.33,-1.05,-6.11,2.52,31.31
67007,0.08,-1.02,0.33,-3.98,-6.74,-3.02,31.31
67017,0.05,-1.01,0.34,-5.65,-8.02,-6.64,31.21
67027,0.04,-1.01,0.35,-6.33,-8.56,-9.36,31.31
67037,0.02,-1.01,0.36,-7.01,-8.60,-10.78,31.31
67047,0.01,-1.01,0.37,-6.19,-8.60,-10.58,31.31
67057,0.00,-1.00,0.38,-3.61,-7.44,-8.95,31.26
67067,-0.00,-0.99,0.37,-1.75,-5.41,-6.81,31.26
67077,0.00,-0.98,0.36,-0.18,-4.07,-5.50,31.35
67087,-0.00,-0.97,0.35,0.15,-4.21,-4.08,31.26
67097,-0.01,-0.96,0.33,-0.31,-4.60,-2.17,31.35
67107,0.00,-0.95,0.30,-1.92,-3.42,-0.60,31.26
67117,0.02,-0.96,0.31,-3.79,-2.18,0.41,31.31
67127,0.03,-0.96,0.31,-5.12,-0.69,1.28,31.40
67137,0.04,-0.97,0.33,-5.32,0.93,1.25,31.21
67147,0.04,-0.98,0.34,-5.28,1.63,0.68,31.21
67157,0.03,-0.98,0.34,-5.11,1.20,-0.63,31.40
67167,0.03,-0.96,0.34,-4.95,0.07,-1.65,31.31
67177,0.04,-0.97,0.34,-4.90,0.17,-3.11,31.35
67187,0.03,-0.96,0.33,-5.86,0.39,-4.87,31.26
67197,-0.01,-0.96,0.34,-7.57,-0.73,-4.52,31.26
67207,-0.04,-0.96,0.34,-7.35,-2.75,-1.11,31.26
67217,-0.04,-0.98,0.33,-5.47,-0.11,3.95,31.35
67227,-0.04,-0.98,0.34,-3.67,4.47,8.35,31.26
67237,-0.02,-0.98,0.36,-2.39,8.56,11.25,31.26
67247,0.01,-0.98,0.35,-1.11,10.66,12.48,31.31
67257,0.02,-0.97,0.35,-0.74,9.87,11.35,31.31
67267,0.03,-0.98,0.33,-1.19,7.06,8.15,31.40
67277,0.03,-0.97,0.33,-2.46,3.71,4.11,31.31
67287,0.03,-0.97,0.31,-4.35,1.13,0.21,31.31
67297,0.01,-0.97,0.31,-7.49,0.44,-3.33,31.21
67307,-0.01,-0.98,0.32,-9.63,-0.92,-4.98,31.35
67317,-0.01,-1.00,0.33,-11.18,-0.44,-5.81,31.26
67327,-0.02,-1.00,0.34,-11.44,-0.11,-5.61,31.26
67337,-0.02,-1.00,0.36,-10.19,0.95,-5.14,31.26
67347,-0.01,-1.00,0.37,-8.27,2.42,-4.60,31.26
67357,-0.01,-1.01,0.37,-6.95,3.01,-4.73,31.26
67367,-0.01,-1.01,0.37,-6.16,2.33,-5.95,31.26
67377,-0.01,-1.00,0.37,-6.53,0.20,-8.61,31.31
67387,-0.01,-1.01,0.35,-7.39,-2.57,-10.53,31.21
67397,-0.02,-0.99,0.34,-7.55,-3.42,-10.98,31.31
67407,-0.01,-0.99,0.33,-7.45,-2.39,-10.71,31.31
67417,-0.00,-0.99,0.33,-8.96,-0.44,-10.76,31.31
67427,0.00,-1.00,0.34,-10.06,0.73,-11.39,31.31
67437,-0.00,-1.00,0.34,-10.92,0.21,-12.63,31.26
67447,-0.01,-1.01,0.37,-11.08,-1.34,-13.66,31.35
67457,-0.03,-1.01,0.37,-10.53,-2.58,-14.19,31.26
67467,-0.03,-1.00,0.36,-9.38,-3.57,-13.15,31.26
67477,-0.04,-0.99,0.36,-7.18,-3.80,-10.55,31.26
67487,-0.04,-0.99,0.36,-4.63,-2.23,-7.31,31.26
67497,-0.03,-0.99,0.34,-2.73,-0.03,-3.83,31.26
67507,-0.02,-0.99,0.34,-2.09,2.53,-0.44,31.31
67517,-0.03,-0.98,0.33,-1.63,3.92,2.56,31.31
67527,-0.01,-0.99,0.33,-1.11,4.66,4.47,31.40
67537,-0.01,-0.99,0.34,-1.66,4.76,5.09,31.21
67547,0.00,-0.99,0.34,-1.63,3.50,4.56,31.31
67557,0.01,-0.99,0.33,-2.44,2.65,3.39,31.31
67567,0.01,-0.99,0.34,-2.78,1.22,1.82,31.35
67577,0.01,-0.99,0.34,-2.73,0.73,0.98,31.26
67587,0.02,-0.99,0.34,-2.47,1.27,0.17,31.26
67597,0.01,-0.99,0.34,-3.18,1.51,-0.37,31.26
67607,-0.00,-0.99,0.34,-3.39,0.66,0.27,31.26
67617,0.00,-0.98,0.34,-2.54,1.10,1.31,31.26
67627,0.01,-0.98,0.35,-1.90,2.63,1.64,31.17
67637,0.01,-0.98,0.34,-0.53,3.28,2.26,31.31
67647,0.01,-0.98,0.34,0.53,2.76,2.47,31.31
67657,0.01,-0.99,0.31,0.07,1.77,2.25,31.31
67667,0.02,-0.97,0.30,-1.15,1.46,1.62,31.31
67677,0.02,-0.97,0.30,-3.67,1.25,0.49,31.31
67687,0.01,-0.96,0.30,-5.95,0.63,-0.37,31.31
67697,0.01,-0.96,0.31,-7.70,0.98,-0.63,31.35
67707,0.00,-0.97,0.33,-8.51,0.08,-0.56,31.35
67717,-0.00,-0.97,0.33,-8.72,0.19,0.05,31.26
67727,-0.00,-0.98,0.35,-8.29,0.27,1.18,31.26
67737,0.00,-0.99,0.37,-7.26,2.08,2.03,31.35
67747,0.00,-0.99,0.37,-5.73,2.53,2.62,31.26
67757,0.00,-1.00,0.36,-4.47,3.15,2.68,31.31
67767,-0.00,-1.00,0.37,-4.34,2.58,2.44,31.31
67777,0.00,-1.00,0.37,-4.23,1.03,2.26,31.40
67787,0.00,-0.99,0.36,-4.57,-0.92,2.30,31.31
67797,0.00,-0.99,0.34,-4.98,-0.30,2.78,31.31
67807,0.01,-0.99,0.34,-5.60,0.98,3.28,31.31
67817,-0.01,-1.01,0.35,-5.81,2.38,4.29,31.26
67827,0.00,-1.01,0.36,-5.82,3.38,4.57,31.26
67837,0.01,-1.02,0.37,-5.67,4.05,4.18,31.26
67847,0.00,-1.02,0.39,-4.18,2.61,3.38,31.35
67857,0.01,-1.02,0.39,-2.39,1.32,2.92,31.31
67867,0.02,-1.02,0.36,-0.27,1.18,3.06,31.26
67877,0.02,-1.01,0.35,-0.21,1.75,2.30,31.26
67887,0.02,-1.00,0.34,-0.25,1.89,1.93,31.21
67897,0.02,-1.00,0.33,-1.31,2.53,1.67,31.31
67907,0.01,-1.00,0.32,-2.14,3.47,1.52,31.31
67917,0.02,-1.00,0.34,-2.85,4.14,0.77,31.31
67927,0.02,-1.00,0.35,-3.14,4.06,-0.06,31.21
67937,0.01,-1.00,0.35,-3.18,3.20,-1.11,31.21
67947,0.00,-0.99,0.36,-2.71,0.81,-2.02,31.26
67957,0.00,-0.99,0.34,-2.24,-0.09,-2.20,31.26
67967,-0.01,-0.99,0.36,-1.44,0.40,-1.09,31.26
67977,-0.02,-0.97,0.35,-0.92,1.00,0.66,31.26
67987,-0.01,-0.97,0.34,-0.64,3.44,2.12,31.21
67997,-0.01,-0.97,0.34,-0.47,4.92,2.73,31.31
68007,-0.00,-0.97,0.35,-0.25,4.48,2.72,31.21
68017,0.01,-0.97,0.33,-0.21,2.64,1.73,31.31
68027,0.01,-0.97,0.33,-1.67,1.28,0.69,31.31
68037,-0.01,-0.97,0.32,-2.30,-0.56,0.72,31.31
68047,0.01,-0.96,0.31,-3.66,1.48,1.09,31.21
68057,0.01,-0.97,0.32,-4.34,3.62,1.23,31.40
68067,0.02,-0.96,0.33,-5.10,5.15,0.31,31.26
68077,0.01,-0.97,0.35,-4.85,4.79,-0.63,31.26
68087,0.01,-0.97,0.34,-4.29,2.50,-1.54,31.35
68097,0.01,-0.97,0.33,-3.86,1.39,-2.54,31.26
68107,0.01,-0.98,0.34,-3.98,1.34,-2.95,31.35
68117,-0.00,-0.97,0.34,-3.60,1.67,-2.53,31.31
68127,0.01,-0.99,0.33,-3.61,3.66,-2.12,31.40
68137,-0.00,-0.98,0.33,-3.47,4.93,-1.73,31.31
68147,-0.01,-0.97,0.34,-3.16,4.21,-0.89,31.21
68157,-0.00,-0.97,0.33,-3.55,3.73,-0.11,31.31
68167,-0.00,-0.98,0.33,-3.85,4.13,0.19,31.31
68177,-0.00,-0.97,0.33,-5.32,4.21,-0.39,31.21
68187,-0.01,-0.98,0.33,-6.89,3.44,-1.13,31.26
68197,-0.01,-0.98,0.34,-7.42,2.66,-1.41,31.26
68207,-0.02,-1.00,0.34,-6.75,2.51,-1.03,31.26
68217,-0.02,-0.99,0.35,-6.13,2.60,-0.28,31.26
68227,-0.01,-1.00,0.35,-5.45,3.34,0.31,31.26
68237,-0.02,-1.01,0.35,-5.62,3.60,0.44,31.17
68247,-0.03,-1.01,0.35,-5.66,2.11,0.19,31.31
68257,-0.02,-1.01,0.36,-5.89,1.32,0.34,31.31
68267,-0.02,-1.02,0.36,-5.93,1.06,0.05,31.31
68277,-0.02,-1.02,0.36,-5.81,0.75,0.16,31.21
68287,-0.03,-1.02,0.37,-5.08,0.32,0.66,31.21
68297,-0.02,-1.02,0.36,-4.11,0.90,1.55,31.31
68307,-0.02,-1.03,0.37,-2.97,1.45,2.15,31.21
68317,-0.01,-1.02,0.37,-2.64,1.96,1.59,31.26
68327,-0.01,-1.03,0.38,-2.47,0.60,-0.11,31.26
68337,-0.01,-1.02,0.38,-2.27,-1.59,-1.63,31.26
68347,-0.02,-1.01,0.35,-1.40,-3.42,-2.15,31.35
68357,-0.01,-1.00,0.33,-0.48,-3.77,-1.60,31.35
68367,-0.01,-0.99,0.33,-0.94,-2.47,-0.43,31.26
68377,-0.02,-1.00,0.33,-1.56,-0.82,0.23,31.21
68387,-0.02,-0.99,0.33,-3.52,-0.15,0.94,31.31
68397,-0.02,-1.00,0.35,-3.34,-1.74,1.69,31.31
68407,0.00,-1.00,0.34,-3.51,-0.51,1.92,31.31
68417,-0.00,-1.00,0.36,-2.37,-0.68,1.50,31.31
68427,0.00,-1.00,0.36,-1.45,-1.18,0.44,31.35
68437,0.01,-0.99,0.36,-0.66,-1.88,-0.05,31.35
68447,0.01,-0.99,0.35,0.30,-2.54,-0.20,31.35
68457,0.01,-0.98,0.33,0.54,-2.12,-0.02,31.35
68467,0.01,-0.98,0.32,-0.37,-1.75,-0.16,31.31
68477,0.01,-0.97,0.32,-1.88,-0.79,0.25,31.26
68487,0.01,-0.97,0.33,-2.98,-0.63,0.08,31.21
68497,0.00,-0.97,0.34,-4.07,-0.47,0.15,31.31
68507,-0.01,-0.98,0.35,-3.76,-0.80,0.47,31.31
68517,0.00,-0.97,0.34,-3.08,-0.12,0.56,31.31
68527,-0.00,-0.97,0.35,-3.15,-0.12,0.52,31.31
68537,-0.01,-0.98,0.36,-2.89,-1.34,1.08,31.21
68547,-0.01,-0.98,0.35,-2.44,-1.82,1.73,31.26
68557,-0.00,-0.98,0.34,-2.57,-1.76,2.08,31.26
68567,0.00,-0.97,0.35,-2.66,-1.06,2.73,31.26
68577,0.01,-0.97,0.35,-2.20,-0.10,3.38,31.17
68587,0.02,-0.97,0.35,-1.80,0.74,3.31,31.26
68597,0.02,-0.96,0.35,-2.40,1.40,2.66,31.31
68607,0.01,-0.96,0.34,-3.15,0.01,2.42,31.31
68617,0.01,-0.95,0.34,-3.90,-1.46,2.27,31.31
68627,0.01,-0.95,0.33,-4.93,-1.47,2.69,31.40
68637,0.02,-0.96,0.32,-5.34,-0.61,3.29,31.31
68647,0.02,-0.95,0.33,-6.26,0.54,3.23,31.21
68657,0.02,-0.96,0.34,-6.97,0.76,2.88,31.31
68667,0.02,-0.97,0.34,-7.19,0.02,2.18,31.26
68677,0.01,-0.97,0.35,-6.85,-0.92,1.87,31.35
68687,0.02,-0.97,0.34,-6.06,-0.81,2.04,31.35
68697,0.01,-0.96,0.34,-5.45,-0.45,2.24,31.35
