Millis,Acce_X,Acce_Y,Acce_Z,Gyro_X,Gyro_Y,Gyro_Z,Temp
88317,-0.08,-1.07,-0.06,4.78,-0.73,-4.49,30.22
88327,-0.09,-1.08,-0.04,2.15,-3.28,-7.02,30.13
88337,-0.08,-1.08,-0.02,1.02,-6.17,-9.39,30.13
88347,-0.08,-1.06,-0.05,0.63,-7.22,-9.59,30.13
88357,-0.08,-1.02,-0.05,-0.03,-8.27,-7.51,30.18
88367,-0.09,-1.04,-0.05,-0.52,-10.18,-4.81,30.08
88377,-0.09,-1.07,-0.03,-0.31,-11.63,-2.50,30.18
88387,-0.09,-1.10,-0.03,0.34,-13.73,-1.89,30.18
88397,-0.09,-1.14,0.00,0.64,-15.01,-3.85,30.18
88407,-0.09,-1.13,0.01,2.44,-17.11,-6.85,30.27
88417,-0.10,-1.14,0.00,3.66,-19.56,-10.43,30.13
88427,-0.13,-1.14,0.01,3.08,-22.84,-14.06,30.22
88437,-0.19,-1.14,0.00,-0.72,-27.11,-16.29,30.13
88447,-0.20,-1.12,-0.01,-6.76,-32.64,-17.11,30.22
88457,-0.23,-1.14,0.00,-12.67,-41.66,-17.79,30.22
88467,-0.26,-1.17,0.03,-19.86,-48.81,-19.97,30.13
88477,-0.26,-1.15,0.04,-27.21,-53.10,-20.21,30.13
88487,-0.24,-1.08,0.07,-33.37,-57.21,-17.60,30.18
88497,-0.23,-1.04,0.06,-32.84,-61.10,-10.99,30.18
88507,-0.19,-1.05,0.03,-28.90,-59.89,-3.56,30.18
88517,-0.18,-1.07,0.01,-21.77,-61.54,2.92,30.18
88527,-0.12,-1.10,-0.01,-15.19,-63.48,5.89,30.27
88537,-0.07,-1.09,-0.00,-10.96,-65.51,1.21,30.18
88547,-0.04,-1.02,-0.01,-7.11,-67.88,-4.93,30.22
88557,-0.05,-0.99,-0.05,-2.05,-71.91,-11.10,30.13
88567,-0.06,-0.99,-0.09,2.06,-74.50,-15.25,30.13
88577,-0.07,-0.98,-0.12,3.65,-74.00,-16.52,30.22
88587,-0.07,-0.96,-0.14,1.25,-74.73,-14.95,30.22
88597,-0.08,-0.96,-0.15,-3.02,-72.66,-11.65,30.22
88607,-0.08,-0.96,-0.14,-6.17,-68.95,-7.79,30.18
88617,-0.07,-0.96,-0.15,-6.18,-67.62,-4.50,30.18
88627,-0.06,-0.97,-0.13,-4.73,-65.24,-2.35,30.18
88637,-0.08,-1.00,-0.14,-0.31,-65.13,-1.68,30.27
88647,-0.10,-1.02,-0.13,2.55,-65.76,-0.93,30.18
88657,-0.09,-1.01,-0.14,2.76,-64.99,0.89,30.27
88667,-0.06,-1.01,-0.15,0.21,-62.63,2.00,30.18
88677,-0.02,-1.01,-0.15,-3.71,-61.39,-0.55,30.22
88687,0.00,-1.00,-0.15,-7.28,-60.12,-6.00,30.22
88697,0.01,-1.00,-0.15,-9.11,-59.11,-13.68,30.13
88707,-0.01,-0.99,-0.14,-11.80,-57.51,-20.76,30.13
88717,-0.06,-0.97,-0.12,-12.31,-59.31,-24.93,30.13
88727,-0.09,-0.97,-0.11,-11.57,-60.31,-24.37,30.22
88737,-0.11,-0.98,-0.10,-10.20,-60.09,-20.75,30.13
88747,-0.09,-0.96,-0.09,-8.60,-57.92,-14.69,30.27
88757,-0.07,-0.96,-0.09,-5.82,-55.88,-12.00,30.08
88767,-0.08,-0.96,-0.11,-3.83,-53.07,-12.49,30.08
88777,-0.09,-0.94,-0.11,-2.44,-54.79,-12.64,30.27
88787,-0.10,-0.90,-0.14,-2.67,-57.30,-11.62,30.18
88797,-0.12,-0.87,-0.15,-5.13,-59.71,-6.99,30.27
88807,-0.11,-0.89,-0.16,-6.78,-58.90,0.03,30.22
88817,-0.10,-0.94,-0.16,-9.11,-56.76,4.15,30.22
88827,-0.10,-0.98,-0.11,-12.24,-55.83,4.11,30.13
88837,-0.09,-1.01,-0.08,-14.27,-57.83,0.84,30.13
88847,-0.10,-1.02,-0.07,-13.83,-61.36,-2.63,30.13
88857,-0.11,-1.02,-0.08,-12.49,-62.17,-4.96,30.13
88867,-0.12,-1.03,-0.11,-10.52,-62.00,-5.53,30.18
88877,-0.14,-1.06,-0.11,-11.48,-61.25,-5.18,30.18
88887,-0.15,-1.05,-0.12,-11.79,-62.20,-5.16,30.18
88897,-0.14,-1.02,-0.13,-12.93,-63.56,-4.41,30.18
88907,-0.15,-0.99,-0.13,-14.29,-66.99,-0.60,30.18
88917,-0.14,-0.95,-0.15,-15.30,-69.21,5.77,30.18
88927,-0.14,-0.96,-0.16,-16.85,-69.71,11.42,30.08
88937,-0.13,-0.99,-0.16,-17.92,-71.62,15.85,30.22
88947,-0.13,-1.04,-0.20,-16.67,-70.37,17.95,30.13
88957,-0.09,-1.06,-0.17,-17.05,-73.01,16.84,30.13
88967,-0.03,-1.06,-0.20,-18.75,-75.40,11.85,30.22
88977,0.04,-1.03,-0.23,-23.59,-73.80,0.43,30.22
88987,0.07,-1.02,-0.24,-28.95,-75.01,-12.43,30.22
88997,0.05,-1.02,-0.25,-30.78,-73.45,-22.14,30.18
89007,-0.01,-1.05,-0.25,-31.69,-74.06,-26.56,30.08
89017,-0.03,-1.06,-0.25,-32.26,-71.86,-27.27,30.18
89027,-0.02,-1.06,-0.23,-31.71,-69.91,-27.68,30.27
89037,0.02,-1.04,-0.21,-28.06,-66.05,-29.44,30.18
89047,0.04,-1.02,-0.21,-26.15,-61.68,-35.86,30.18
89057,0.02,-1.00,-0.22,-25.63,-60.78,-44.29,30.13
89067,-0.01,-0.98,-0.23,-26.66,-61.48,-50.32,30.13
89077,-0.03,-0.94,-0.25,-28.12,-62.52,-53.28,30.13
89087,-0.09,-0.90,-0.27,-29.48,-63.48,-51.39,30.22
89097,-0.13,-0.90,-0.29,-29.31,-64.05,-41.36,30.18
89107,-0.16,-0.94,-0.25,-28.61,-65.73,-27.30,30.13
89117,-0.18,-0.97,-0.19,-28.11,-69.83,-13.89,30.18
89127,-0.14,-1.02,-0.15,-25.53,-73.47,-3.19,30.18
89137,-0.10,-1.06,-0.17,-18.50,-75.66,5.74,30.27
89147,-0.06,-1.10,-0.20,-8.61,-76.67,12.99,30.18
89157,-0.02,-1.09,-0.23,-0.60,-74.24,18.34,30.18
89167,0.04,-1.08,-0.29,2.69,-71.77,19.08,30.08
89177,0.08,-1.04,-0.29,-0.02,-68.69,13.54,30.13
89187,0.09,-1.02,-0.30,-5.66,-68.89,4.90,30.13
89197,0.09,-1.01,-0.34,-11.19,-70.87,-3.34,30.13
89207,0.08,-1.02,-0.33,-16.43,-72.21,-9.40,30.22
89217,0.06,-1.04,-0.31,-18.34,-71.91,-13.73,30.13
89227,0.03,-1.05,-0.29,-18.06,-71.15,-16.43,30.18
89237,0.04,-1.07,-0.28,-15.76,-69.76,-17.86,30.18
89247,0.06,-1.03,-0.27,-13.74,-67.91,-20.47,30.18
89257,0.06,-0.99,-0.28,-9.54,-65.11,-23.36,30.08
89267,0.04,-0.92,-0.29,-4.60,-61.39,-24.24,30.18
89277,0.05,-0.84,-0.31,-0.43,-58.58,-23.59,30.08
89287,0.07,-0.66,-0.28,-3.36,-52.18,-21.98,30.18
89297,0.08,-0.55,-0.21,-13.79,-50.43,-26.46,30.13
89307,0.02,-0.59,-0.20,-22.14,-47.40,-35.85,30.13
89317,-0.14,-0.77,-0.22,-28.35,-49.85,-44.90,30.13
89327,-0.28,-0.92,-0.19,-33.16,-60.31,-46.64,30.13
89337,-0.36,-1.00,-0.17,-34.09,-74.38,-38.23,30.13
89347,-0.30,-1.06,-0.16,-29.91,-85.37,-22.40,30.13
89357,-0.16,-1.14,-0.19,-21.62,-86.93,-4.12,30.18
89367,-0.03,-1.19,-0.20,-8.05,-81.91,11.62,30.18
89377,0.05,-1.23,-0.21,6.63,-75.13,21.69,30.18
89387,0.11,-1.25,-0.22,17.63,-71.28,24.00,30.08
89397,0.16,-1.21,-0.27,22.87,-66.82,19.37,30.18
89407,0.16,-1.20,-0.28,22.61,-66.92,9.34,30.08
89417,0.15,-1.15,-0.34,20.64,-65.36,-0.89,29.99
89427,0.11,-1.11,-0.39,16.87,-64.26,-9.28,30.13
89437,0.08,-1.05,-0.39,11.30,-64.06,-12.58,30.13
89447,0.07,-1.01,-0.37,3.74,-64.00,-12.98,30.22
89457,0.06,-1.00,-0.33,-2.00,-62.61,-13.31,30.22
89467,0.03,-1.02,-0.28,-2.78,-61.62,-13.65,30.13
89477,-0.02,-1.03,-0.26,-0.23,-60.37,-12.60,30.04
89487,-0.05,-1.04,-0.24,4.55,-60.69,-9.74,30.18
89497,-0.07,-1.02,-0.26,8.76,-61.88,-6.61,30.18
89507,-0.02,-0.99,-0.28,9.34,-60.27,-4.49,30.18
89517,0.02,-0.92,-0.27,6.00,-58.56,-6.81,30.08
89527,0.07,-0.84,-0.25,-0.55,-56.29,-15.40,30.08
89537,0.06,-0.79,-0.23,-10.35,-57.25,-30.55,30.18
89547,-0.04,-0.81,-0.23,-18.96,-63.45,-41.34,30.18
89557,-0.13,-0.88,-0.24,-22.81,-70.61,-41.19,30.13
89567,-0.20,-0.95,-0.24,-22.69,-78.06,-32.24,30.22
89577,-0.16,-0.97,-0.22,-18.31,-76.14,-17.88,30.22
89587,-0.06,-0.93,-0.20,-14.21,-72.32,-5.36,30.22
89597,0.02,-0.93,-0.21,-8.89,-67.91,-1.15,30.22
89607,0.05,-0.93,-0.21,-6.52,-67.59,-5.02,30.13
89617,0.05,-0.94,-0.24,-5.91,-70.95,-13.34,30.18
89627,0.05,-0.92,-0.26,-10.29,-73.71,-22.61,30.18
89637,0.05,-0.90,-0.27,-17.57,-74.82,-30.63,30.08
89647,0.06,-0.86,-0.29,-24.58,-72.96,-36.38,30.18
89657,0.06,-0.84,-0.32,-28.84,-69.30,-38.50,30.18
89667,0.08,-0.84,-0.32,-30.78,-67.05,-39.13,30.18
89677,0.10,-0.83,-0.33,-28.40,-64.60,-41.50,30.18
89687,0.10,-0.83,-0.33,-25.82,-63.22,-46.37,30.13
89697,0.15,-0.80,-0.34,-26.76,-59.25,-52.64,30.13
89707,0.15,-0.81,-0.31,-29.16,-55.31,-66.21,30.22
89717,0.12,-0.78,-0.33,-36.03,-54.84,-83.88,30.13
89727,0.07,-0.76,-0.33,-42.93,-58.95,-93.10,30.13
89737,0.02,-0.76,-0.34,-46.81,-63.51,-88.23,30.04
89747,-0.01,-0.83,-0.34,-45.77,-69.51,-68.93,30.08
89757,-0.01,-0.92,-0.33,-38.64,-71.98,-40.15,30.27
89767,0.00,-1.04,-0.29,-28.72,-74.95,-10.53,30.18
89777,0.05,-1.16,-0.26,-18.23,-75.11,13.92,30.18
89787,0.11,-1.22,-0.23,-8.40,-75.30,29.02,30.08
89797,0.19,-1.24,-0.22,-2.79,-73.42,32.47,30.08
89807,0.25,-1.21,-0.23,1.18,-71.04,29.88,30.18
89817,0.27,-1.16,-0.26,6.11,-69.91,23.77,30.18
89827,0.26,-1.13,-0.32,10.72,-68.56,21.82,30.22
89837,0.27,-1.10,-0.39,13.02,-64.64,24.23,30.22
89847,0.26,-1.10,-0.42,12.85,-60.52,26.29,30.13
89857,0.28,-1.06,-0.45,9.79,-54.82,25.22,30.13
89867,0.29,-1.01,-0.46,3.27,-51.45,19.48,30.13
89877,0.28,-0.99,-0.44,-6.63,-52.24,12.44,30.18
89887,0.28,-1.00,-0.43,-14.90,-54.31,6.64,30.08
89897,0.27,-1.02,-0.39,-18.11,-55.48,2.11,30.08
89907,0.25,-1.06,-0.38,-17.11,-51.89,1.57,30.18
89917,0.23,-1.06,-0.34,-12.46,-46.17,2.23,30.08
89927,0.23,-1.03,-0.33,-7.08,-40.49,-0.40,30.18
89937,0.20,-0.98,-0.34,-3.48,-36.53,-5.22,30.08
89947,0.18,-0.93,-0.37,-4.06,-36.24,-8.72,30.08
89957,0.16,-0.87,-0.37,-7.53,-37.56,-10.90,30.13
89967,0.13,-0.84,-0.38,-13.04,-39.28,-9.07,30.13
89977,0.11,-0.86,-0.38,-16.44,-39.13,-1.05,30.22
89987,0.11,-0.91,-0.35,-17.24,-37.33,7.62,30.13
89997,0.13,-0.95,-0.31,-15.68,-33.94,13.54,30.04
90007,0.15,-0.97,-0.30,-11.63,-33.11,15.73,30.18
90017,0.18,-0.96,-0.30,-7.60,-31.22,15.71,30.13
90027,0.20,-0.95,-0.32,-4.02,-29.21,12.90,30.18
90037,0.20,-0.93,-0.36,-2.31,-28.38,10.31,30.08
90047,0.19,-0.90,-0.37,-4.17,-27.98,9.01,30.18
90057,0.21,-0.91,-0.36,-8.09,-29.47,8.63,30.18
90067,0.21,-0.93,-0.38,-9.33,-28.75,9.08,30.08
90077,0.22,-0.94,-0.38,-9.77,-22.27,10.76,30.08
90087,0.25,-0.97,-0.39,-9.11,-17.85,10.34,30.22
90097,0.24,-0.98,-0.37,-7.30,-13.73,7.73,30.13
90107,0.23,-0.99,-0.37,-6.61,-10.76,4.49,30.13
90117,0.22,-0.98,-0.36,-6.64,-9.39,1.60,30.22
90127,0.19,-0.99,-0.36,-7.27,-8.29,0.08,30.22
90137,0.20,-0.99,-0.35,-7.98,-3.34,-1.01,30.18
90147,0.20,-1.00,-0.34,-7.51,-0.40,-2.49,30.13
90157,0.19,-1.00,-0.34,-4.17,2.69,-2.99,29.99
90167,0.17,-1.00,-0.35,-0.82,5.86,-2.63,30.18
90177,0.16,-1.00,-0.36,2.32,9.95,-0.52,30.08
90187,0.13,-1.02,-0.35,4.47,14.15,3.47,30.08
90197,0.12,-1.06,-0.34,5.98,16.63,6.37,30.27
90207,0.10,-1.09,-0.33,6.67,17.33,6.60,30.08
90217,0.09,-1.10,-0.34,5.44,16.32,6.14,30.08
90227,0.11,-1.09,-0.33,3.95,14.99,5.28,30.04
90237,0.13,-1.09,-0.33,2.75,13.89,3.57,30.13
90247,0.13,-1.09,-0.31,3.74,15.68,2.49,30.22
90257,0.12,-1.10,-0.30,6.08,17.01,1.59,30.13
90267,0.12,-1.10,-0.30,7.60,19.51,0.79,30.27
90277,0.09,-1.08,-0.28,9.34,20.63,-0.73,30.13
90287,0.06,-1.07,-0.28,11.16,21.77,-1.79,30.13
90297,0.04,-1.04,-0.27,12.69,21.08,-0.47,30.18
90307,0.04,-1.03,-0.29,15.15,21.74,1.22,30.18
90317,0.05,-1.01,-0.31,17.85,23.33,1.92,30.08
90327,0.07,-1.02,-0.32,18.92,26.21,1.48,30.18
90337,0.11,-1.04,-0.32,18.96,28.08,-1.15,30.18
90347,0.14,-1.06,-0.28,18.27,30.26,-4.44,30.08
90357,0.15,-1.10,-0.23,22.00,33.01,-9.74,30.13
90367,0.17,-1.16,-0.18,30.63,39.07,-13.53,30.22
90377,0.17,-1.18,-0.15,42.21,46.02,-15.50,30.22
90387,0.15,-1.17,-0.16,52.02,51.59,-16.05,30.22
90397,0.12,-1.14,-0.17,58.17,53.86,-13.95,30.13
90407,0.14,-1.08,-0.25,61.59,58.00,-10.92,30.22
90417,0.12,-1.03,-0.31,58.31,60.14,-10.99,30.13
90427,0.10,-0.99,-0.34,50.41,58.34,-11.02,30.18
90437,0.10,-0.96,-0.35,39.88,54.38,-10.85,30.18
90447,0.10,-0.95,-0.33,28.14,47.79,-12.17,30.08
90457,0.11,-0.96,-0.31,17.63,43.51,-12.47,30.18
90467,0.12,-0.98,-0.28,10.00,40.92,-10.46,30.18
90477,0.14,-1.01,-0.21,6.99,42.78,-7.48,30.08
90487,0.15,-1.04,-0.16,10.18,44.06,-2.05,30.18
90497,0.16,-1.05,-0.15,17.05,46.17,5.10,30.22
90507,0.19,-1.04,-0.16,25.82,50.56,9.80,30.13
90517,0.21,-1.03,-0.20,31.24,55.65,8.81,30.13
90527,0.21,-0.97,-0.22,29.94,57.13,4.75,30.13
90537,0.20,-0.92,-0.25,23.88,55.77,0.47,30.22
90547,0.18,-0.88,-0.28,16.41,55.10,-2.41,30.13
90557,0.15,-0.87,-0.28,9.01,55.19,-2.37,30.13
90567,0.14,-0.88,-0.26,4.20,55.31,2.31,30.18
90577,0.15,-0.91,-0.24,2.09,56.89,8.12,30.18
90587,0.19,-0.94,-0.22,2.78,60.18,11.86,30.18
90597,0.21,-0.98,-0.22,4.24,64.06,11.92,30.18
90607,0.26,-1.03,-0.16,7.21,69.18,7.56,30.18
90617,0.29,-1.05,-0.13,11.76,75.05,-1.21,30.08
90627,0.30,-1.04,-0.12,15.79,78.11,-13.05,30.22
90637,0.28,-1.03,-0.12,20.23,77.77,-23.18,30.13
90647,0.19,-0.99,-0.10,24.34,76.82,-30.18,30.13
90657,0.11,-0.95,-0.13,29.92,75.33,-28.90,30.13
90667,0.02,-0.93,-0.14,36.75,75.92,-19.40,30.13
90677,-0.04,-0.90,-0.13,40.63,77.22,-6.31,30.13
90687,-0.02,-0.88,-0.14,38.70,80.08,7.54,30.08
90697,0.02,-0.88,-0.14,33.16,81.62,16.29,30.08
90707,0.07,-0.92,-0.13,26.17,80.31,18.40,30.18
90717,0.13,-0.93,-0.14,20.46,80.72,15.51,30.18
90727,0.14,-0.95,-0.13,15.69,81.04,8.93,30.18
90737,0.11,-0.98,-0.10,13.62,79.97,4.98,30.18
90747,0.08,-0.99,-0.08,13.76,79.28,4.38,30.22
90757,0.07,-0.98,-0.08,14.20,81.51,7.07,30.22
90767,0.07,-0.98,-0.09,15.45,83.65,11.10,30.13
90777,0.09,-1.01,-0.07,17.34,86.76,13.69,30.13
90787,0.11,-1.02,-0.06,17.11,87.48,10.93,30.18
90797,0.09,-1.01,-0.06,17.11,84.15,5.86,30.13
90807,0.09,-1.01,-0.10,15.15,82.20,1.34,30.08
90817,0.07,-1.01,-0.09,10.87,81.45,-1.88,30.27
90827,0.06,-1.02,-0.07,6.90,81.85,-4.79,30.08
90837,0.05,-1.05,-0.05,4.24,80.78,-6.75,30.18
90847,0.07,-1.07,-0.06,3.21,79.50,-10.40,30.18
90857,0.10,-1.07,-0.10,3.68,79.25,-14.35,30.18
90867,0.15,-1.04,-0.15,3.89,79.59,-18.95,30.22
90877,0.21,-1.01,-0.19,0.73,80.41,-24.56,30.22
90887,0.26,-0.97,-0.22,-5.51,81.15,-33.47,30.22
90897,0.28,-0.95,-0.25,-13.08,82.20,-43.25,30.13
90907,0.25,-0.97,-0.25,-20.78,82.34,-52.11,30.04
90917,0.19,-0.98,-0.22,-25.10,82.27,-54.41,30.18
90927,0.13,-1.00,-0.18,-24.20,85.98,-47.57,30.13
90937,0.08,-0.99,-0.12,-16.92,94.23,-33.34,30.18
90947,0.02,-0.99,-0.09,-6.34,95.82,-17.04,30.08
90957,0.04,-0.98,-0.09,0.40,102.12,-0.99,30.08
90967,0.04,-1.01,-0.06,6.00,103.13,8.70,30.08
90977,0.07,-1.01,-0.08,9.59,102.81,12.73,30.18
90987,0.09,-1.00,-0.09,8.38,98.56,13.11,30.18
90997,0.12,-0.96,-0.12,5.83,97.05,12.05,30.18
91007,0.11,-0.95,-0.12,2.92,95.56,9.27,30.22
91017,0.09,-0.97,-0.13,0.24,95.30,6.89,30.13
91027,0.09,-0.99,-0.12,-3.40,95.30,5.22,30.22
91037,0.10,-1.02,-0.07,-4.87,94.60,2.08,30.22
91047,0.09,-1.03,-0.02,-4.32,94.87,-1.60,30.27
91057,0.07,-1.04,-0.00,-0.76,94.41,-5.28,30.22
91067,0.05,-1.02,0.00,4.79,95.22,-8.37,30.13
91077,0.06,-1.00,-0.00,7.33,91.33,-13.50,30.18
91087,0.04,-0.95,0.01,3.13,88.21,-21.51,30.18
91097,-0.00,-0.91,0.03,-5.60,78.76,-30.15,30.18
91107,-0.04,-0.88,0.04,-14.87,71.63,-33.01,30.18
91117,-0.11,-0.88,0.04,-18.12,68.23,-25.50,30.08
91127,-0.13,-0.91,0.02,-13.42,67.22,-9.44,30.27
91137,-0.08,-0.95,0.00,-3.86,73.05,9.02,30.13
91147,-0.02,-0.95,-0.03,3.95,78.81,21.79,30.13
91157,0.03,-0.90,-0.06,5.11,80.63,29.94,30.22
91167,0.09,-0.90,-0.11,2.31,79.51,37.05,30.22
91177,0.08,-0.95,-0.10,-3.11,76.53,40.09,30.27
91187,0.12,-1.05,-0.08,-4.66,72.92,38.92,30.13
91197,0.15,-1.12,-0.06,-4.08,71.63,33.66,30.27
91207,0.18,-1.16,-0.06,-1.47,72.79,26.72,30.18
91217,0.19,-1.16,-0.06,0.18,76.37,18.81,30.18
91227,0.14,-1.15,-0.05,0.92,75.40,13.27,30.18
91237,0.11,-1.16,-0.02,4.40,73.91,12.47,30.08
91247,0.08,-1.18,0.01,12.20,72.76,14.98,30.27
91257,0.07,-1.19,0.01,24.38,75.30,20.96,30.08
91267,0.10,-1.18,-0.02,35.56,82.90,27.97,30.22
91277,0.15,-1.16,-0.04,41.66,92.06,31.77,30.22
91287,0.20,-1.17,-0.04,44.85,101.19,30.81,30.13
91297,0.21,-1.21,-0.02,50.90,109.71,24.40,30.22
91307,0.17,-1.23,-0.00,55.30,114.38,15.74,30.18
91317,0.16,-1.25,-0.01,54.50,116.44,5.42,30.13
91327,0.10,-1.21,-0.01,50.50,111.31,-3.33,30.08
91337,0.03,-1.17,-0.02,42.15,106.32,-9.56,30.08
91347,0.07,-1.09,-0.03,28.26,112.61,-11.76,30.08
91357,0.01,-1.01,-0.01,25.83,86.55,-6.46,30.18
91367,0.10,-0.95,-0.04,17.56,113.50,0.92,30.08
91377,-0.14,-1.00,0.09,19.82,83.77,5.30,30.08
91387,-0.15,-1.03,0.07,20.20,82.67,7.04,30.18
91397,0.15,-1.01,-0.10,21.98,110.35,11.22,30.32
91407,-0.06,-1.00,0.07,16.12,89.02,3.48,30.13
91417,-0.01,-1.01,0.01,13.11,93.44,0.70,30.13
91427,-0.03,-1.03,0.01,8.78,88.43,-2.55,30.22
91437,-0.06,-1.06,0.04,5.54,80.49,-5.92,30.18
91447,-0.07,-1.06,0.08,3.66,75.10,-8.55,30.22
91457,-0.06,-1.03,0.09,3.40,71.24,-10.99,30.27
91467,-0.05,-1.03,0.10,3.18,71.25,-12.76,30.18
91477,-0.07,-1.04,0.09,5.07,71.10,-11.22,30.18
91487,-0.08,-1.03,0.05,8.03,73.07,-7.59,30.08
91497,-0.07,-1.04,0.05,4.00,75.95,-4.93,30.27
91507,-0.05,-1.02,0.06,-1.85,75.73,-4.44,30.18
91517,-0.01,-1.03,0.07,-6.92,76.14,-9.71,30.13
91527,-0.01,-1.03,0.11,-11.77,73.57,-18.50,30.22
91537,-0.04,-1.03,0.11,-12.81,70.98,-24.81,30.22
91547,-0.08,-1.08,0.12,-13.33,66.43,-29.73,30.13
91557,-0.13,-1.13,0.17,-16.43,61.48,-33.94,30.13
91567,-0.11,-1.17,0.18,-20.31,56.75,-40.75,30.18
91577,-0.05,-1.23,0.23,-24.60,52.41,-55.07,30.18
91587,0.00,-1.24,0.25,-28.02,52.20,-73.82,30.18
91597,0.05,-1.19,0.27,-28.24,51.02,-94.21,30.18
91607,0.07,-1.13,0.28,-24.40,48.79,-109.02,30.18
91617,0.06,-1.08,0.24,-11.56,44.63,-119.85,30.18
91627,0.10,-1.06,0.18,-6.14,36.67,-129.69,30.27
91637,-0.07,-0.97,0.14,-25.85,28.70,-134.47,30.18
91647,-0.14,-0.94,0.07,-46.23,32.95,-126.92,30.13
91657,-0.13,-0.89,0.05,-41.73,34.46,-104.73,30.22
91667,-0.18,-0.83,0.02,-39.01,43.91,-74.14,30.13
91677,-0.20,-0.76,0.06,-31.04,49.18,-39.85,30.13
91687,-0.15,-0.71,0.06,-28.12,55.11,-11.10,30.22
91697,-0.15,-0.78,0.07,-29.34,53.16,9.77,30.27
91707,-0.14,-0.89,0.12,-30.72,45.08,22.69,30.18
91717,-0.13,-0.99,0.16,-34.43,42.47,27.98,30.27
91727,-0.07,-1.06,0.24,-31.62,34.02,27.57,30.18
91737,0.02,-1.07,0.21,-27.89,31.01,23.77,30.18
91747,0.07,-1.06,0.14,-23.18,31.54,19.36,30.18
91757,0.04,-1.06,0.11,-22.96,31.74,17.44,30.18
91767,0.02,-1.10,0.08,-24.43,28.14,18.53,30.27
91777,0.02,-1.13,0.09,-30.12,25.88,17.95,30.27
91787,0.02,-1.12,0.14,-35.04,23.04,18.96,30.22
91797,0.02,-1.12,0.18,-30.47,22.34,20.73,30.22
91807,0.01,-1.12,0.22,-19.50,20.82,21.50,30.22
91817,-0.05,-1.10,0.20,-8.89,13.91,22.18,30.22
91827,-0.06,-1.09,0.17,-4.41,5.31,23.77,30.18
91837,-0.06,-1.08,0.19,-5.16,-0.70,25.36,30.22
91847,-0.03,-1.07,0.17,-4.09,-1.53,27.18,30.22
91857,0.01,-1.05,0.13,-2.27,2.73,30.96,30.18
91867,0.04,-1.04,0.10,1.45,6.05,34.23,30.18
91877,0.04,-1.02,0.09,4.66,4.92,36.69,30.18
91887,0.04,-1.00,0.09,7.04,2.03,39.25,30.18
91897,0.08,-1.03,0.08,6.95,0.47,41.56,30.08
91907,0.10,-1.05,0.10,3.63,3.98,39.74,30.18
91917,0.10,-1.05,0.11,1.48,2.35,34.78,30.08
91927,0.12,-1.04,0.09,0.15,3.47,28.11,30.13
91937,0.12,-1.02,0.08,0.05,3.45,21.79,30.13
91947,0.09,-1.01,0.07,-1.66,2.09,16.41,30.13
91957,0.07,-0.98,0.04,-4.23,0.56,16.20,30.22
91967,0.05,-0.98,0.03,-7.76,2.89,19.97,30.13
91977,0.05,-1.00,0.05,-9.89,3.53,24.06,30.13
91987,0.07,-1.03,0.08,-11.86,4.34,24.79,30.22
91997,0.08,-1.03,0.06,-13.47,4.69,23.05,30.27
92007,0.10,-1.05,0.09,-14.60,5.15,17.07,30.18
92017,0.09,-1.06,0.11,-14.15,2.31,8.89,30.27
92027,0.08,-1.09,0.10,-13.02,-0.49,3.66,30.18
92037,0.06,-1.11,0.10,-12.12,-1.59,0.44,30.18
92047,0.07,-1.11,0.11,-11.04,-1.73,-1.57,30.18
92057,0.07,-1.11,0.14,-9.76,-0.11,-4.03,30.08
92067,0.09,-1.08,0.13,-7.62,1.15,-6.56,30.08
92077,0.08,-1.04,0.14,-4.27,2.72,-7.91,30.13
92087,0.06,-1.03,0.12,0.35,4.95,-5.94,30.13
92097,0.03,-1.04,0.10,1.85,6.67,-1.88,30.13
92107,0.04,-1.07,0.10,0.49,7.36,0.55,30.13
92117,0.05,-1.08,0.13,0.06,8.89,-0.55,30.13
92127,0.05,-1.07,0.13,-0.41,8.31,-4.66,30.18
92137,0.04,-1.03,0.15,-0.21,6.15,-7.65,30.13
92147,0.01,-1.01,0.11,1.40,2.46,-4.69,30.22
92157,-0.16,-0.97,0.18,1.40,-10.35,7.82,30.18
92167,-0.30,-0.98,0.20,5.51,-25.53,18.24,30.08
92177,-0.17,-1.02,0.13,8.44,-19.11,24.64,30.18
92187,-0.01,-1.05,0.15,7.08,-2.53,28.03,30.18
92197,0.15,-0.96,0.04,5.60,27.33,29.08,30.08
92207,0.06,-1.02,0.12,2.32,14.89,22.31,30.27
92217,0.02,-1.03,0.09,-0.08,14.66,21.92,30.18
92227,-0.03,-0.99,0.14,-2.12,7.02,28.50,30.18
92237,-0.02,-0.99,0.13,2.46,12.27,41.51,30.13
92247,0.01,-1.01,0.13,8.34,18.09,54.03,30.13
92257,0.08,-1.04,0.13,10.93,21.30,58.02,30.13
92267,0.16,-1.08,0.12,11.37,18.35,50.78,30.13
92277,0.22,-1.10,0.10,4.15,16.72,32.75,30.22
92287,0.27,-1.13,0.12,0.38,13.08,8.05,30.22
92297,0.25,-1.09,0.13,-2.93,6.66,-12.56,30.18
92307,0.16,-1.03,0.16,-5.05,-2.90,-21.88,30.18
92317,-0.31,-0.89,0.26,-2.64,-36.82,-11.40,30.18
92327,-0.36,-0.90,0.10,15.88,-40.69,0.87,30.18
92337,-0.06,-0.99,0.14,19.92,-15.22,16.72,30.08
92347,0.15,-0.98,0.11,20.70,28.92,26.29,30.18
92357,0.03,-1.03,0.18,20.21,32.02,20.72,30.18
92367,0.02,-1.07,0.11,12.26,28.52,14.67,30.27
92377,0.02,-0.98,0.13,2.24,5.86,3.68,30.04
92387,0.00,-0.98,0.11,-2.49,-7.79,-1.77,30.22
92397,-0.02,-1.01,0.12,-5.69,-13.65,-1.77,30.22
92407,-0.01,-1.03,0.13,-7.11,-10.24,0.93,30.22
92417,-0.03,-1.05,0.16,-5.89,-10.60,2.93,30.13
92427,0.01,-1.06,0.18,-4.78,-10.34,3.95,30.18
92437,0.00,-1.08,0.19,-3.62,-10.78,2.44,30.22
92447,0.00,-1.08,0.20,-0.66,-13.77,0.20,30.27
92457,0.00,-1.05,0.18,2.75,-12.37,-1.27,30.18
92467,-0.02,-1.03,0.16,5.98,-11.92,-1.48,30.18
92477,-0.02,-0.99,0.13,5.88,-4.38,0.50,30.27
92487,-0.01,-0.99,0.10,3.33,1.89,2.87,30.18
92497,0.01,-0.99,0.09,-1.97,5.07,4.32,30.18
92507,-0.00,-1.01,0.11,-8.06,5.98,2.67,30.22
92517,-0.00,-1.01,0.14,-12.26,2.44,-0.61,30.13
92527,-0.01,-1.02,0.17,-13.25,-0.43,-4.27,30.32
92537,0.02,-1.04,0.17,-11.40,0.09,-6.76,30.13
92547,0.00,-1.04,0.19,-8.85,0.55,-8.61,30.22
92557,0.02,-1.03,0.16,-7.27,3.44,-9.01,30.18
92567,-0.00,-1.02,0.16,-6.27,2.43,-9.01,30.22
92577,0.01,-1.02,0.14,-6.79,4.66,-9.19,30.27
92587,0.00,-1.00,0.15,-7.85,3.71,-9.07,30.18
92597,0.01,-1.01,0.14,-8.50,0.49,-9.86,30.18
92607,0.01,-1.00,0.15,-8.85,0.08,-10.90,30.18
92617,0.01,-1.00,0.15,-9.02,0.23,-10.27,30.08
92627,0.00,-1.00,0.15,-9.63,1.79,-9.95,30.08
92637,0.00,-1.02,0.16,-10.00,3.30,-8.60,30.13
92647,0.01,-1.03,0.15,-10.29,5.07,-8.12,30.22
92657,0.03,-1.04,0.16,-9.04,3.80,-8.21,30.22
92667,0.02,-1.05,0.15,-7.04,1.45,-8.24,30.13
92677,0.03,-1.02,0.15,-5.48,0.29,-7.57,30.13
92687,0.03,-1.03,0.15,-4.40,0.69,-5.44,30.27
92697,0.03,-1.02,0.15,-3.66,2.14,-1.85,30.18
92707,0.03,-1.03,0.15,-2.76,4.26,1.60,30.18
92717,0.02,-1.04,0.14,-1.89,6.12,4.49,30.27
92727,0.03,-1.05,0.16,-2.21,6.56,6.55,30.18
92737,0.03,-1.07,0.17,-2.17,5.74,6.15,30.18
92747,0.03,-1.10,0.19,-1.21,4.99,3.76,30.18
92757,0.03,-1.09,0.19,0.53,5.53,1.74,30.18
92767,0.03,-1.09,0.18,2.53,6.31,0.26,30.13
92777,0.03,-1.04,0.16,3.45,10.64,0.79,30.22
92787,0.00,-1.02,0.14,3.63,9.50,1.74,30.13
92797,-0.00,-1.01,0.14,1.11,5.89,2.49,30.13
92807,0.01,-1.02,0.12,-3.05,2.34,2.70,30.13
92817,0.02,-1.03,0.12,-8.35,2.09,1.63,30.08
92827,0.03,-1.03,0.11,-13.63,8.32,1.47,30.22
92837,-0.00,-1.03,0.13,-16.23,9.74,1.79,30.08
92847,0.01,-1.03,0.12,-17.79,10.18,4.26,30.18
92857,0.02,-1.03,0.13,-20.90,11.51,5.36,30.08
92867,0.00,-1.04,0.11,-24.24,10.09,7.31,30.08
92877,-0.00,-1.04,0.09,-29.66,9.39,9.30,30.18
92887,0.01,-1.04,0.11,-35.36,8.96,10.73,30.18
92897,-0.02,-1.05,0.12,-40.53,5.83,11.42,30.13
92907,-0.02,-1.05,0.13,-43.11,1.15,11.13,30.13
92917,-0.02,-1.04,0.13,-42.50,-5.39,10.17,30.22
92927,-0.03,-1.03,0.12,-39.95,-9.19,9.51,30.22
92937,-0.01,-1.02,0.14,-34.46,-12.21,9.95,30.13
92947,-0.02,-1.03,0.14,-26.84,-12.31,10.23,30.18
92957,-0.01,-1.02,0.13,-18.53,-10.40,11.80,30.13
92967,-0.01,-1.02,0.12,-9.77,-8.53,13.22,30.18
92977,-0.00,-1.02,0.10,-3.94,-5.34,13.97,30.18
92987,-0.02,-1.02,0.10,0.31,-5.54,12.92,30.08
92997,-0.01,-1.02,0.10,1.40,-6.79,9.95,30.08
93007,0.00,-1.00,0.08,-1.16,-4.81,7.08,30.08
93017,-0.00,-1.00,0.08,-3.73,-3.36,3.34,30.18
93027,-0.00,-1.00,0.10,-6.12,-1.36,0.44,30.13
93037,-0.03,-0.99,0.09,-6.49,-1.36,-0.76,30.13
93047,-0.04,-0.98,0.08,-5.57,0.20,0.58,30.13
93057,-0.05,-0.98,0.08,-5.05,1.22,3.33,30.22
93067,-0.07,-0.98,0.09,-5.48,2.58,6.53,30.13
93077,-0.06,-1.00,0.10,-6.18,2.92,8.26,30.18
93087,-0.06,-1.00,0.10,-6.37,1.88,8.03,30.18
93097,-0.04,-0.99,0.07,-6.75,0.61,7.51,30.18
93107,-0.04,-0.98,0.04,-8.46,3.28,8.79,30.08
93117,-0.03,-0.97,0.00,-10.05,4.20,10.81,30.18
93127,-0.03,-0.96,-0.03,-11.57,6.41,14.14,30.18
93137,-0.04,-0.96,-0.05,-14.14,7.28,18.89,30.18
93147,-0.05,-0.97,-0.03,-17.74,7.42,23.76,30.13
93157,-0.07,-1.02,-0.01,-21.13,5.98,26.72,30.22
93167,-0.08,-1.07,0.03,-22.96,4.96,28.53,30.22
93177,-0.10,-1.11,0.08,-23.86,2.85,29.56,30.13
93187,-0.11,-1.17,0.12,-23.31,1.11,29.25,30.13
93197,-0.11,-1.22,0.17,-21.73,-1.68,25.66,30.18
93207,-0.11,-1.24,0.21,-17.74,-5.33,20.02,30.08
93217,-0.08,-1.24,0.19,-11.21,-7.28,13.40,30.18
93227,-0.06,-1.22,0.19,-4.26,-8.47,6.98,30.18
93237,-0.06,-1.16,0.14,2.46,-7.76,2.79,30.08
