Millis,Acce_X,Acce_Y,Acce_Z,Gyro_X,Gyro_Y,Gyro_Z,Temp
78567,-0.05,-0.99,0.01,-1.01,7.25,-3.07,31.87
78577,-0.05,-0.99,0.00,-1.57,7.63,-1.68,31.87
78587,-0.05,-0.98,0.02,-2.81,6.99,-1.07,31.87
78597,-0.06,-0.99,0.01,-4.00,6.09,-0.73,31.87
78607,-0.05,-0.99,0.02,-5.40,4.99,-1.04,31.87
78617,-0.05,-1.03,0.02,-6.56,4.00,-2.11,31.87
78627,-0.05,-1.04,0.05,-7.59,3.50,-3.80,31.87
78637,-0.05,-1.06,0.06,-6.37,3.40,-5.68,31.78
78647,-0.05,-1.07,0.07,-3.65,2.85,-6.21,31.82
78657,-0.06,-1.07,0.07,-0.69,3.15,-6.50,31.82
78667,-0.07,-1.06,0.08,1.44,1.59,-7.59,31.82
78677,-0.07,-1.05,0.06,3.19,1.53,-7.51,31.82
78687,-0.06,-1.05,0.06,3.86,1.08,-7.48,31.73
78697,-0.06,-1.03,0.03,3.54,2.52,-7.80,31.82
78707,-0.07,-1.03,0.03,2.53,3.59,-8.58,31.87
78717,-0.04,-1.04,0.03,1.91,4.96,-10.05,31.78
78727,-0.05,-1.05,0.04,0.11,5.68,-13.74,31.78
78737,-0.05,-1.08,0.07,0.02,3.60,-17.65,31.78
78747,-0.06,-1.11,0.08,0.15,-0.96,-22.93,31.78
78757,-0.04,-1.14,0.13,0.69,-4.55,-30.72,31.87
78767,-0.04,-1.17,0.15,2.66,-12.24,-38.84,31.87
78777,-0.04,-1.18,0.17,4.69,-17.74,-45.37,31.78
78787,-0.03,-1.16,0.16,9.85,-21.73,-49.92,31.87
78797,-0.04,-1.10,0.10,14.98,-20.00,-48.40,31.73
78807,-0.05,-1.03,0.05,14.05,-20.55,-40.99,31.82
78817,-0.10,-1.01,0.13,11.77,-31.60,-33.44,31.73
78827,-0.05,-0.92,0.01,10.37,-20.06,-15.30,31.92
78837,-0.06,-0.96,0.03,7.37,-19.19,-4.37,31.73
78847,-0.06,-0.97,0.07,7.04,-19.82,2.38,31.82
78857,-0.03,-0.98,0.07,7.91,-20.85,4.58,31.92
78867,-0.03,-1.00,0.07,8.17,-25.71,4.08,31.82
78877,-0.03,-0.99,0.08,6.79,-28.99,1.80,31.78
78887,-0.04,-0.99,0.09,5.83,-30.90,-2.34,31.78
78897,-0.05,-0.99,0.10,5.80,-32.29,-5.68,31.87
78907,-0.07,-1.00,0.09,4.70,-35.86,-6.78,31.78
78917,-0.08,-1.01,0.08,4.26,-36.17,-4.15,31.87
78927,-0.08,-1.01,0.09,4.79,-34.90,0.49,31.87
78937,-0.08,-1.02,0.10,6.29,-33.54,5.66,31.78
78947,-0.05,-1.03,0.11,5.15,-30.99,9.73,31.87
78957,-0.03,-1.03,0.11,5.15,-30.58,11.21,31.82
78967,-0.02,-1.05,0.10,6.96,-31.85,11.85,31.73
78977,-0.01,-1.07,0.10,4.75,-30.92,8.99,31.82
78987,0.02,-1.09,0.13,3.65,-30.12,3.31,31.82
78997,0.03,-1.07,0.13,1.10,-28.02,-4.37,31.82
79007,0.01,-1.08,0.12,0.15,-25.59,-10.95,31.78
79017,-0.03,-1.08,0.12,-1.50,-25.92,-16.35,31.82
79027,-0.07,-1.05,0.12,-1.94,-29.95,-18.08,31.92
79037,-0.06,-1.00,0.09,-0.29,-31.33,-14.47,31.78
79047,-0.07,-0.99,0.09,0.60,-31.15,-8.64,31.87
79057,-0.06,-0.95,0.04,0.03,-31.08,-1.33,31.78
79067,-0.03,-0.96,0.03,-3.53,-28.50,4.02,31.87
79077,-0.01,-0.96,0.04,-9.24,-27.21,6.43,31.78
79087,0.00,-0.98,0.06,-14.70,-31.01,4.58,31.87
79097,0.02,-1.02,0.08,-19.13,-33.15,1.86,31.87
79107,0.03,-1.04,0.12,-18.78,-35.42,-0.34,31.78
79117,0.03,-1.06,0.13,-16.81,-35.66,-3.76,31.87
79127,0.03,-1.08,0.13,-12.26,-34.55,-6.92,31.92
79137,0.01,-1.05,0.10,-7.15,-34.12,-9.39,31.82
79147,-0.01,-1.03,0.09,-5.66,-37.22,-10.52,31.82
79157,-0.04,-1.02,0.06,-5.28,-38.85,-8.02,31.82
79167,-0.06,-1.02,0.03,-5.10,-39.56,-2.34,31.82
79177,-0.04,-1.03,0.03,-5.71,-36.85,4.14,31.87
79187,-0.02,-1.04,0.04,-6.14,-34.53,8.95,31.82
79197,0.01,-1.07,0.04,-6.67,-33.69,10.08,31.82
79207,0.02,-1.06,0.05,-7.74,-34.60,7.98,31.87
79217,0.03,-1.08,0.07,-7.16,-37.66,4.49,31.87
79227,0.04,-1.08,0.07,-5.18,-38.66,1.31,31.78
79237,0.02,-1.10,0.08,-1.83,-40.38,-0.79,31.78
79247,0.02,-1.10,0.09,1.01,-38.49,-0.64,31.87
79257,0.03,-1.11,0.08,4.99,-35.94,0.18,31.78
79267,0.01,-1.10,0.08,6.06,-33.54,0.44,31.87
79277,0.01,-1.09,0.06,5.15,-29.18,1.01,31.82
79287,0.02,-1.07,0.06,4.32,-27.77,1.19,31.82
79297,0.02,-1.04,0.06,5.05,-26.49,0.66,31.82
79307,0.03,-1.03,0.04,4.96,-25.91,-0.26,31.82
79317,0.02,-1.04,0.05,6.02,-26.18,-2.67,31.82
79327,-0.00,-1.03,0.06,4.47,-27.22,-7.08,31.73
79337,-0.03,-1.03,0.09,2.95,-29.22,-12.60,31.82
79347,-0.03,-1.04,0.08,1.56,-29.94,-17.60,31.78
79357,-0.03,-1.05,0.07,1.16,-33.95,-21.97,31.78
79367,-0.06,-1.05,0.10,1.59,-36.26,-25.28,31.87
79377,-0.08,-1.04,0.10,1.76,-40.93,-24.29,31.78
79387,-0.10,-1.02,0.11,2.61,-43.63,-19.10,31.87
79397,-0.09,-1.00,0.10,5.89,-38.60,-9.89,31.78
79407,-0.09,-0.99,0.10,9.44,-35.19,-1.16,31.87
79417,-0.07,-0.98,0.08,10.90,-32.84,5.92,31.78
79427,-0.05,-0.99,0.08,11.28,-33.74,8.02,31.78
79437,-0.01,-0.99,0.08,10.37,-37.10,3.34,31.82
79447,-0.00,-1.00,0.08,8.27,-40.98,-5.89,31.92
79457,-0.01,-1.00,0.08,5.94,-48.24,-15.51,31.73
79467,-0.02,-0.98,0.07,4.29,-54.70,-22.32,31.82
79477,-0.03,-0.97,0.05,6.08,-58.61,-23.44,31.82
79487,-0.04,-0.96,0.03,6.84,-61.42,-22.03,31.82
79497,-0.02,-0.95,0.03,6.18,-59.36,-18.52,31.82
79507,-0.01,-0.96,0.02,6.17,-58.82,-15.22,31.78
79517,0.01,-0.97,0.01,5.50,-58.12,-13.76,31.78
79527,0.02,-0.98,0.06,4.92,-61.66,-15.27,31.78
79537,0.02,-1.00,0.06,6.08,-66.32,-16.49,31.87
79547,0.04,-1.00,0.05,6.75,-66.89,-17.40,31.78
79557,0.08,-1.03,0.06,7.21,-70.05,-19.79,31.78
79567,0.09,-1.03,0.05,3.73,-70.89,-23.85,31.87
79577,0.08,-1.02,0.05,0.69,-74.76,-26.34,31.87
79587,0.09,-1.04,0.00,0.41,-71.71,-23.79,31.82
79597,0.08,-1.03,0.01,-1.45,-66.12,-16.89,31.73
79607,0.07,-1.03,0.01,-0.89,-61.44,-6.02,31.92
79617,0.09,-1.06,0.02,2.63,-56.82,5.31,31.82
79627,0.15,-1.07,0.04,5.40,-52.79,12.02,31.82
79637,0.18,-1.09,0.04,5.91,-50.72,10.92,31.82
79647,0.18,-1.12,0.05,5.44,-53.36,5.56,31.78
79657,0.17,-1.11,0.07,3.71,-58.02,-2.52,31.73
79667,0.19,-1.11,0.06,1.97,-62.82,-10.87,31.97
79677,0.20,-1.08,0.04,-1.62,-67.73,-19.44,31.78
79687,0.24,-1.08,0.02,-3.85,-63.89,-28.58,31.78
79697,0.22,-1.04,0.04,-7.94,-63.21,-39.24,31.78
79707,0.19,-1.00,-0.01,-8.99,-67.08,-45.82,31.78
79717,0.13,-0.95,-0.01,-9.40,-68.98,-46.32,31.87
79727,0.07,-0.90,-0.00,-10.69,-67.34,-39.44,31.87
79737,0.05,-0.89,-0.01,-10.24,-64.52,-26.31,31.87
79747,0.05,-0.92,0.01,-10.70,-58.23,-12.85,31.82
79757,0.06,-0.94,0.04,-12.98,-57.02,-6.32,31.82
79767,0.09,-0.99,0.10,-11.07,-54.70,-4.69,31.82
79777,0.10,-1.00,0.06,-9.28,-64.85,-7.25,31.73
79787,0.11,-1.00,0.07,-8.63,-72.14,-10.50,31.82
79797,0.15,-0.98,0.06,-8.93,-76.41,-12.06,31.82
79807,0.18,-0.96,0.03,-12.06,-73.83,-10.43,31.82
79817,0.18,-0.95,-0.01,-11.44,-66.81,-3.08,31.78
79827,0.20,-0.94,-0.01,-10.03,-56.60,5.33,31.87
79837,0.18,-0.95,0.01,-9.77,-50.02,10.53,31.87
79847,0.13,-0.95,0.03,-10.81,-49.48,13.48,31.78
79857,0.09,-0.96,0.03,-12.63,-52.76,15.77,31.87
79867,0.09,-1.01,0.05,-14.05,-61.62,14.21,31.87
79877,0.14,-1.03,0.05,-18.23,-66.84,8.31,31.87
79887,0.18,-1.04,0.06,-23.40,-75.22,-0.55,31.78
79897,0.22,-1.04,0.06,-22.14,-80.52,-8.58,31.87
79907,0.20,-1.04,0.04,-16.79,-81.27,-8.58,31.73
79917,0.16,-1.07,0.03,-8.29,-78.67,3.18,31.73
79927,0.14,-1.10,0.05,-0.93,-66.21,22.47,31.82
79937,0.16,-1.14,0.12,6.06,-48.58,41.53,31.82
79947,0.18,-1.17,0.17,14.23,-35.56,51.24,31.82
79957,0.18,-1.18,0.16,21.59,-27.89,48.37,31.82
79967,0.21,-1.13,0.12,23.88,-33.74,32.98,31.73
79977,0.19,-1.05,0.05,22.34,-45.02,13.89,31.78
79987,0.17,-0.95,-0.02,17.86,-56.87,-1.27,31.78
79997,0.14,-0.89,-0.09,9.68,-62.47,-5.89,31.78
80007,0.10,-0.85,-0.13,0.03,-64.72,-0.58,31.78
80017,0.06,-0.87,-0.11,-6.18,-57.50,12.46,31.87
80027,0.03,-0.88,-0.06,-13.94,-53.22,24.90,31.68
80037,0.07,-0.94,-0.02,-11.98,-40.98,35.37,31.78
80047,0.08,-1.01,0.01,-10.18,-44.92,37.88,31.87
80057,0.10,-1.02,0.01,-7.60,-52.85,36.23,31.82
80067,0.15,-1.01,-0.01,-7.28,-58.41,32.61,31.73
80077,0.18,-1.01,-0.06,-7.57,-61.11,30.40,31.73
80087,0.22,-1.03,-0.07,-10.47,-57.59,30.75,31.82
80097,0.24,-1.04,-0.06,-14.35,-51.56,29.94,31.82
80107,0.24,-1.05,-0.06,-15.82,-48.15,26.12,31.82
80117,0.23,-1.04,-0.04,-15.80,-47.80,20.89,31.78
80127,0.23,-1.03,-0.06,-15.57,-48.20,16.35,31.82
80137,0.21,-1.02,-0.11,-15.73,-48.82,15.21,31.78
80147,0.21,-0.99,-0.13,-17.77,-46.18,17.51,31.78
80157,0.20,-0.98,-0.16,-21.79,-43.66,20.73,31.78
80167,0.19,-0.97,-0.15,-28.49,-41.11,23.08,31.78
80177,0.17,-0.97,-0.13,-35.44,-42.40,22.60,31.78
80187,0.18,-0.98,-0.09,-43.56,-43.54,18.90,31.78
80197,0.14,-1.02,-0.06,-48.81,-48.24,15.08,31.68
80207,0.12,-1.03,-0.04,-49.66,-46.85,13.16,31.87
80217,0.08,-1.03,0.00,-45.97,-45.94,14.02,31.82
80227,0.09,-1.05,0.02,-39.69,-43.45,15.86,31.82
80237,0.07,-1.07,0.02,-31.82,-38.84,17.11,31.73
80247,0.04,-1.09,0.01,-23.76,-37.65,18.61,31.82
80257,0.03,-1.08,-0.02,-17.13,-35.37,22.34,31.73
80267,0.02,-1.07,-0.02,-13.16,-36.00,26.15,31.73
80277,0.08,-1.06,-0.04,-11.50,-34.14,27.68,31.73
80287,0.12,-1.05,-0.04,-11.50,-31.15,24.53,31.78
80297,0.13,-1.05,-0.07,-12.43,-30.52,17.36,31.78
80307,0.10,-1.07,-0.08,-13.97,-33.25,8.63,31.87
80317,0.06,-1.10,-0.09,-14.64,-34.96,4.14,31.87
80327,-0.00,-1.11,-0.09,-14.41,-38.95,4.96,31.87
80337,0.02,-1.12,-0.11,-13.37,-33.89,11.10,31.68
80347,0.01,-1.14,-0.10,-13.34,-29.37,17.54,31.78
80357,0.02,-1.16,-0.07,-12.81,-26.53,21.16,31.78
80367,0.04,-1.18,-0.06,-11.10,-27.44,20.96,31.82
80377,0.03,-1.18,-0.03,-9.63,-30.55,17.80,31.73
80387,0.05,-1.17,-0.04,-7.59,-34.37,13.31,31.82
80397,0.06,-1.16,-0.03,-3.91,-35.39,9.44,31.73
80407,0.07,-1.14,-0.04,0.41,-32.47,6.44,31.82
80417,0.04,-1.13,-0.04,3.51,-30.84,3.47,31.78
80427,0.03,-1.12,-0.05,5.91,-28.70,0.72,31.73
80437,0.02,-1.09,-0.08,6.55,-28.38,-0.93,31.73
80447,-0.00,-1.07,-0.09,4.29,-29.73,-2.21,31.78
80457,-0.00,-1.05,-0.09,0.89,-30.93,-3.27,31.78
80467,-0.02,-1.03,-0.09,-2.40,-33.07,-4.47,31.87
80477,-0.02,-1.02,-0.08,-4.12,-32.89,-4.60,31.87
80487,-0.04,-1.00,-0.07,-4.70,-34.61,-3.25,31.78
80497,-0.05,-0.97,-0.06,-3.88,-33.83,-0.70,31.78
80507,-0.05,-0.97,-0.07,-3.02,-33.18,2.06,31.78
80517,-0.06,-0.97,-0.07,-4.00,-35.01,4.41,31.73
80527,-0.05,-0.99,-0.07,-5.15,-37.05,5.92,31.73
80537,-0.05,-1.00,-0.10,-5.82,-36.95,9.11,31.73
80547,-0.02,-1.02,-0.11,-6.67,-33.80,13.57,31.73
80557,-0.02,-1.01,-0.10,-8.52,-31.07,17.25,31.73
80567,-0.00,-1.00,-0.08,-11.51,-30.05,18.78,31.73
80577,0.01,-0.98,-0.05,-13.80,-31.50,17.74,31.82
80587,0.03,-0.94,-0.05,-15.54,-31.89,15.60,31.87
80597,0.01,-0.92,-0.06,-17.07,-33.69,12.41,31.82
80607,-0.03,-0.90,-0.08,-20.00,-37.88,12.35,31.78
80617,-0.08,-0.89,-0.12,-24.09,-42.73,16.02,31.87
80627,-0.11,-0.91,-0.14,-30.15,-45.16,23.13,31.87
80637,-0.08,-0.93,-0.14,-39.08,-41.56,30.67,31.78
80647,-0.08,-0.95,-0.12,-44.56,-39.56,34.66,31.78
80657,-0.08,-1.00,-0.13,-44.05,-39.05,38.52,31.78
80667,-0.08,-1.04,-0.05,-40.76,-43.68,40.15,31.87
80677,-0.06,-1.07,-0.04,-32.92,-47.18,41.36,31.78
80687,-0.05,-1.09,-0.03,-23.50,-48.05,43.54,31.68
80697,-0.02,-1.10,-0.04,-15.60,-44.56,46.00,31.73
80707,0.00,-1.10,-0.03,-6.73,-39.07,46.24,31.82
80717,0.01,-1.09,-0.08,2.03,-35.25,44.27,31.73
80727,-0.00,-1.09,-0.09,4.73,-33.34,41.05,31.73
80737,-0.00,-1.09,-0.11,3.65,-37.37,35.94,31.73
80747,0.01,-1.09,-0.12,-0.76,-39.53,29.19,31.82
80757,0.02,-1.10,-0.14,-7.59,-33.73,22.21,31.78
80767,0.01,-1.09,-0.11,-13.83,-30.53,13.44,31.73
80777,-0.02,-1.07,-0.10,-16.03,-29.74,4.79,31.73
80787,-0.08,-1.06,-0.09,-15.85,-31.51,-1.48,31.78
80797,-0.14,-1.06,-0.09,-13.30,-33.79,-2.85,31.78
80807,-0.18,-1.05,-0.09,-11.31,-33.80,-0.09,31.68
80817,-0.19,-1.02,-0.07,-9.73,-31.92,5.08,31.78
80827,-0.21,-1.03,-0.05,-7.91,-30.64,9.39,31.87
80837,-0.20,-1.02,-0.09,-4.55,-28.21,15.04,31.87
80847,-0.19,-1.03,-0.08,-2.56,-26.20,20.15,31.78
80857,-0.16,-1.02,-0.07,-1.60,-26.82,22.69,31.78
80867,-0.12,-1.02,-0.08,-2.67,-28.08,22.73,31.68
80877,-0.10,-1.02,-0.08,-4.05,-28.85,20.43,31.78
80887,-0.06,-1.00,-0.08,-4.98,-28.12,16.69,31.73
80897,-0.05,-1.01,-0.06,-4.92,-29.54,12.37,31.73
80907,-0.06,-1.01,-0.09,-3.94,-30.47,7.85,31.73
80917,-0.10,-0.98,-0.13,-6.37,-33.62,3.39,31.82
80927,-0.14,-0.95,-0.14,-11.25,-37.79,1.83,31.82
80937,-0.17,-0.94,-0.15,-19.04,-38.72,1.66,31.73
80947,-0.15,-0.93,-0.16,-27.05,-35.85,2.00,31.73
80957,-0.17,-0.93,-0.15,-30.90,-35.04,3.57,31.82
80967,-0.16,-0.91,-0.16,-31.44,-29.24,6.82,31.78
80977,-0.13,-0.93,-0.14,-27.48,-26.20,9.83,31.78
80987,-0.11,-0.95,-0.12,-24.32,-24.89,10.41,31.78
80997,-0.09,-0.97,-0.15,-21.54,-23.56,9.95,31.78
81007,-0.09,-1.00,-0.15,-21.08,-23.07,9.50,31.78
81017,-0.10,-1.02,-0.14,-20.98,-22.35,9.86,31.87
81027,-0.10,-1.03,-0.12,-21.05,-19.98,9.48,31.78
81037,-0.11,-1.04,-0.09,-19.98,-19.25,8.40,31.78
81047,-0.11,-1.05,-0.08,-17.19,-20.64,6.23,31.73
81057,-0.10,-1.05,-0.09,-12.89,-18.37,3.83,31.73
81067,-0.09,-1.04,-0.11,-7.10,-16.84,3.47,31.82
81077,-0.09,-1.00,-0.14,-2.72,-13.19,4.38,31.82
81087,-0.09,-0.97,-0.19,-3.33,-10.23,4.73,31.82
81097,-0.07,-0.97,-0.19,-8.60,-9.04,3.39,31.78
81107,-0.08,-0.96,-0.21,-15.04,-8.09,-0.21,31.73
81117,-0.08,-0.95,-0.21,-20.31,-8.98,-4.81,31.82
81127,-0.11,-0.95,-0.19,-23.83,-10.66,-7.92,31.87
81137,-0.14,-0.94,-0.16,-26.44,-15.13,-11.42,31.78
81147,-0.17,-0.94,-0.18,-26.05,-16.09,-12.06,31.78
81157,-0.20,-0.93,-0.14,-24.23,-16.41,-10.08,31.87
81167,-0.24,-0.94,-0.12,-21.89,-18.40,-5.08,31.87
81177,-0.25,-0.96,-0.12,-19.04,-17.92,2.34,31.87
81187,-0.23,-0.97,-0.10,-15.71,-15.30,9.74,31.78
81197,-0.19,-0.98,-0.11,-11.92,-12.34,13.86,31.87
81207,-0.16,-1.00,-0.10,-8.99,-10.72,13.65,31.68
81217,-0.14,-1.00,-0.10,-8.41,-10.72,9.53,31.82
81227,-0.11,-1.00,-0.11,-6.98,-12.64,3.95,31.82
81237,-0.07,-1.02,-0.13,-6.09,-10.98,-0.26,31.73
81247,-0.07,-1.04,-0.11,-2.89,-7.50,-6.26,31.73
81257,-0.08,-1.04,-0.12,-1.16,-2.72,-13.94,31.82
81267,-0.15,-0.98,-0.13,-1.16,-1.91,-22.35,31.87
81277,-0.24,-0.92,-0.14,-4.52,-7.40,-29.11,31.82
81287,-0.31,-0.88,-0.18,-9.86,-12.50,-29.50,31.73
81297,-0.35,-0.85,-0.18,-14.90,-13.88,-23.51,31.82
81307,-0.35,-0.86,-0.19,-18.20,-10.49,-13.33,31.87
81317,-0.34,-0.89,-0.17,-20.23,-7.89,-2.96,31.78
81327,-0.30,-0.94,-0.16,-18.95,-7.40,6.14,31.78
81337,-0.27,-0.99,-0.15,-14.85,-6.63,13.05,31.87
81347,-0.22,-1.03,-0.14,-11.40,-7.65,16.17,31.78
81357,-0.19,-1.06,-0.14,-9.33,-9.94,16.20,31.78
81367,-0.14,-1.08,-0.16,-9.60,-8.98,13.57,31.87
81377,-0.11,-1.08,-0.16,-10.85,-8.26,9.97,31.78
81387,-0.10,-1.09,-0.16,-12.46,-8.52,5.01,31.82
81397,-0.10,-1.08,-0.16,-13.88,-9.19,0.11,31.82
81407,-0.12,-1.07,-0.16,-13.16,-10.23,-3.31,31.73
81417,-0.15,-1.06,-0.16,-11.19,-9.83,-4.92,31.73
81427,-0.18,-1.03,-0.17,-9.10,-10.21,-4.90,31.73
81437,-0.18,-1.02,-0.18,-8.05,-8.76,-3.65,31.78
81447,-0.19,-1.00,-0.20,-8.47,-8.58,-2.31,31.82
81457,-0.18,-0.98,-0.20,-8.81,-7.16,-0.41,31.82
81467,-0.19,-0.97,-0.20,-9.42,-6.55,1.45,31.78
81477,-0.20,-0.98,-0.20,-10.61,-7.77,3.50,31.78
81487,-0.18,-0.99,-0.18,-11.57,-6.84,5.66,31.87
81497,-0.17,-1.01,-0.15,-11.21,-6.03,6.00,31.87
81507,-0.16,-1.04,-0.14,-10.96,-5.95,5.71,31.78
81517,-0.13,-1.03,-0.15,-10.53,-3.68,5.51,31.87
81527,-0.14,-1.02,-0.15,-11.76,-2.41,3.98,31.68
81537,-0.13,-1.01,-0.17,-15.77,3.80,2.69,31.87
81547,-0.17,-1.01,-0.17,-15.10,2.09,1.36,31.78
81557,-0.18,-1.02,-0.18,-12.31,2.08,3.37,31.82
81567,-0.20,-1.03,-0.18,-10.05,1.73,6.38,31.73
81577,-0.19,-1.03,-0.18,-7.88,1.48,9.56,31.73
81587,-0.17,-1.03,-0.18,-5.11,1.68,9.62,31.73
81597,-0.14,-1.03,-0.17,-3.04,1.19,7.98,31.73
81607,-0.14,-1.03,-0.17,-1.53,-0.02,3.76,31.82
81617,-0.12,-1.04,-0.18,0.20,-2.12,-0.60,31.82
81627,-0.13,-1.06,-0.18,2.24,-4.56,-4.15,31.82
81637,-0.13,-1.05,-0.18,3.66,-4.21,-6.73,31.73
81647,-0.15,-1.03,-0.20,5.05,-2.98,-6.99,31.78
81657,-0.16,-1.01,-0.20,5.89,-1.02,-5.88,31.78
81667,-0.18,-1.00,-0.21,5.50,1.04,-3.91,31.68
81677,-0.20,-1.01,-0.22,5.22,0.98,-2.08,31.78
81687,-0.19,-1.00,-0.21,3.69,0.95,-0.50,31.78
81697,-0.19,-1.00,-0.21,2.29,1.33,0.09,31.78
81707,-0.18,-1.00,-0.20,1.80,1.45,0.72,31.87
81717,-0.16,-1.02,-0.21,1.48,2.12,1.37,31.78
81727,-0.15,-1.03,-0.20,1.13,2.90,1.34,31.73
81737,-0.14,-1.05,-0.18,1.27,3.65,0.15,31.82
81747,-0.13,-1.06,-0.18,2.63,4.53,-0.96,31.73
81757,-0.13,-1.07,-0.18,4.46,5.40,-2.29,31.73
81767,-0.12,-1.08,-0.20,5.51,6.26,-3.63,31.73
81777,-0.12,-1.08,-0.18,5.82,6.61,-5.56,31.78
81787,-0.12,-1.08,-0.19,6.46,7.19,-6.49,31.82
81797,-0.13,-1.08,-0.19,6.85,8.50,-6.99,31.82
81807,-0.14,-1.07,-0.18,7.44,9.18,-6.95,31.78
81817,-0.14,-1.08,-0.18,8.76,9.94,-6.17,31.78
81827,-0.13,-1.06,-0.19,9.86,11.15,-5.50,31.78
81837,-0.13,-1.05,-0.20,10.61,11.85,-4.63,31.78
81847,-0.13,-1.03,-0.19,10.38,12.69,-3.25,31.78
81857,-0.12,-1.03,-0.20,10.93,13.31,-0.73,31.78
81867,-0.12,-1.03,-0.19,12.96,15.68,3.10,31.78
81877,-0.10,-1.01,-0.19,15.63,18.89,6.38,31.87
81887,-0.08,-0.98,-0.22,17.74,21.36,7.65,31.73
81897,-0.07,-0.96,-0.23,18.56,21.16,8.20,31.82
81907,-0.07,-0.97,-0.26,17.83,19.34,9.30,31.82
81917,-0.06,-0.97,-0.27,15.73,20.41,11.04,31.82
81927,-0.04,-0.98,-0.28,14.67,22.98,14.02,31.82
81937,-0.01,-1.02,-0.25,13.54,26.96,16.02,31.73
81947,0.00,-1.06,-0.22,15.30,29.95,16.79,31.78
81957,0.02,-1.09,-0.20,18.27,32.34,16.41,31.73
81967,0.02,-1.11,-0.16,21.45,33.48,12.99,31.78
81977,0.04,-1.11,-0.14,24.67,35.37,6.81,31.78
81987,0.03,-1.08,-0.13,27.77,36.58,0.27,31.87
81997,-0.00,-1.06,-0.15,29.76,36.70,-4.95,31.68
82007,-0.04,-1.04,-0.14,31.68,38.14,-7.36,31.78
82017,-0.06,-1.00,-0.15,33.33,40.78,-6.85,31.78
82027,-0.09,-0.95,-0.18,33.39,43.05,-6.00,31.78
82037,-0.09,-0.92,-0.20,31.71,45.60,-4.70,31.73
82047,-0.11,-0.90,-0.19,27.33,44.70,-4.38,31.73
82057,-0.14,-0.89,-0.18,22.53,42.63,-3.71,31.73
82067,-0.15,-0.91,-0.16,18.92,41.48,-2.52,31.82
82077,-0.15,-0.94,-0.13,16.73,41.27,-0.53,31.82
82087,-0.14,-0.97,-0.09,17.45,43.28,1.11,31.82
82097,-0.13,-0.99,-0.07,21.69,46.70,2.09,31.82
82107,-0.13,-1.00,-0.06,25.95,50.78,3.76,31.82
82117,-0.12,-1.00,-0.05,29.65,52.31,4.73,31.87
82127,-0.12,-0.98,-0.05,32.34,54.21,4.15,31.78
82137,-0.12,-0.96,-0.05,34.18,54.26,2.53,31.87
82147,-0.12,-0.94,-0.06,34.61,53.37,1.19,31.87
82157,-0.16,-0.92,-0.05,34.29,50.05,-0.12,31.78
82167,-0.18,-0.89,-0.07,34.37,46.02,0.00,31.78
82177,-0.18,-0.88,-0.08,36.73,44.64,2.00,31.78
82187,-0.19,-0.86,-0.11,39.39,44.38,5.18,31.78
82197,-0.21,-0.85,-0.10,41.19,45.22,10.15,31.82
82207,-0.22,-0.86,-0.09,43.62,46.43,15.92,31.82
82217,-0.21,-0.86,-0.10,42.43,50.31,20.32,31.82
82227,-0.18,-0.88,-0.08,38.64,49.83,21.76,31.82
82237,-0.15,-0.91,-0.09,32.67,48.96,20.35,31.82
82247,-0.12,-0.95,-0.06,26.56,48.44,15.82,31.87
82257,-0.12,-1.00,-0.03,21.62,46.43,9.13,31.73
82267,-0.09,-1.04,0.03,19.54,45.39,0.31,31.82
82277,-0.08,-1.06,0.03,23.48,45.77,-8.12,31.78
82287,-0.09,-1.05,0.03,27.31,50.58,-14.09,31.87
82297,-0.13,-1.03,0.01,30.76,54.18,-17.42,31.87
82307,-0.17,-1.01,-0.01,30.21,58.50,-18.06,31.87
82317,-0.24,-0.99,-0.00,26.81,58.72,-16.66,31.87
82327,-0.30,-0.98,-0.01,21.83,56.92,-13.19,31.87
82337,-0.31,-0.97,0.01,18.82,54.44,-7.16,31.87
82347,-0.29,-0.96,0.01,16.92,54.41,-0.61,31.92
82357,-0.27,-0.96,0.02,16.17,54.85,4.67,31.92
82367,-0.25,-0.97,-0.00,17.53,53.94,8.81,31.82
82377,-0.20,-0.97,0.00,16.44,55.94,10.35,31.73
82387,-0.17,-0.97,0.02,14.03,56.73,8.20,31.82
82397,-0.15,-0.96,0.02,12.56,56.24,4.37,31.82
82407,-0.16,-0.98,0.01,11.59,56.99,-0.23,31.73
82417,-0.20,-1.00,0.02,11.82,54.32,-3.73,31.68
82427,-0.22,-1.02,0.03,13.68,53.10,-4.96,31.82
82437,-0.26,-1.01,0.05,15.47,51.50,-3.13,31.87
82447,-0.26,-1.01,0.04,17.39,50.27,1.66,31.78
82457,-0.27,-1.00,0.04,19.05,49.88,6.63,31.87
82467,-0.29,-1.00,0.06,23.50,47.36,11.71,31.78
82477,-0.27,-1.02,0.06,31.91,44.18,17.21,31.78
82487,-0.24,-1.03,0.02,38.49,46.78,22.43,31.87
82497,-0.22,-1.03,0.02,41.88,55.30,26.61,31.87
82507,-0.22,-1.03,0.04,42.46,61.76,29.59,31.78
82517,-0.19,-0.99,0.01,40.26,62.61,30.81,31.82
82527,-0.19,-0.99,0.00,36.75,63.60,31.11,31.82
82537,-0.19,-1.02,-0.04,35.89,64.38,32.44,31.82
82547,-0.16,-1.04,-0.05,37.42,68.46,34.24,31.92
82557,-0.12,-1.06,-0.01,37.28,71.79,31.62,31.82
82567,-0.11,-1.08,0.01,35.62,75.39,21.94,31.82
82577,-0.12,-1.09,0.05,32.35,74.08,7.74,31.82
82587,-0.15,-1.08,0.07,31.53,68.47,-4.87,31.87
82597,-0.20,-1.07,0.07,33.40,64.67,-12.18,31.78
82607,-0.24,-1.06,0.07,36.08,64.05,-14.78,31.78
82617,-0.27,-1.05,0.06,37.07,65.68,-14.35,31.78
82627,-0.31,-1.03,0.08,37.74,68.89,-11.68,31.87
82637,-0.32,-1.00,0.08,40.20,73.08,-6.11,31.78
82647,-0.33,-0.98,0.08,42.34,76.56,0.44,31.87
82657,-0.33,-0.97,0.09,43.80,77.22,4.35,31.87
82667,-0.32,-0.94,0.06,43.50,76.14,5.53,31.82
82677,-0.32,-0.95,0.09,41.40,72.14,6.58,31.92
82687,-0.29,-0.96,0.07,39.19,71.85,8.15,31.82
82697,-0.25,-0.97,0.07,37.62,74.56,8.79,31.82
82707,-0.21,-1.00,0.08,37.92,78.53,7.76,31.73
82717,-0.19,-1.02,0.10,39.50,80.98,5.68,31.68
82727,-0.18,-1.03,0.13,42.73,81.83,0.89,31.82
82737,-0.16,-1.02,0.12,46.49,82.58,-5.77,31.78
82747,-0.15,-1.01,0.09,50.92,83.86,-12.76,31.87
82757,-0.16,-1.00,0.05,53.56,87.11,-18.46,31.87
82767,-0.17,-0.99,0.03,52.43,89.63,-23.79,31.78
82777,-0.17,-0.96,0.02,47.19,90.37,-31.19,31.78
82787,-0.16,-0.91,-0.03,38.70,89.15,-40.18,31.78
82797,-0.14,-0.87,-0.08,27.56,85.42,-52.78,31.87
82807,-0.14,-0.86,-0.09,14.43,78.38,-65.10,31.87
82817,-0.17,-0.87,-0.10,3.37,69.44,-74.75,31.82
82827,-0.19,-0.88,-0.07,-4.41,61.88,-78.61,31.82
82837,-0.23,-0.93,-0.07,-9.74,63.25,-72.89,31.82
82847,-0.24,-0.97,0.02,-11.71,68.44,-63.95,31.82
82857,-0.25,-1.00,0.10,-10.38,77.24,-56.89,31.82
82867,-0.26,-1.01,0.18,-5.21,80.72,-52.32,31.82
82877,-0.27,-1.01,0.17,3.50,78.76,-47.89,31.92
82887,-0.29,-0.99,0.15,13.16,73.62,-41.97,31.87
82897,-0.26,-0.98,0.09,19.76,73.73,-33.34,31.78
82907,-0.23,-0.98,0.06,20.05,77.86,-22.93,31.78
82917,-0.20,-0.98,0.05,17.85,83.71,-13.40,31.78
82927,-0.14,-1.01,0.04,15.30,90.82,-8.11,31.87
82937,-0.12,-1.03,0.09,14.41,93.50,-8.47,31.87
82947,-0.14,-1.04,0.09,16.27,95.76,-13.37,31.78
82957,-0.16,-1.04,0.13,19.02,95.51,-20.84,31.82
82967,-0.21,-1.03,0.15,21.73,92.03,-27.50,31.82
82977,-0.26,-1.02,0.15,22.24,87.65,-31.30,31.82
82987,-0.30,-1.03,0.12,23.13,86.64,-30.15,31.92
82997,-0.31,-1.02,0.10,23.97,90.15,-21.86,31.82
83007,-0.33,-1.01,0.09,26.06,97.01,-8.29,31.82
83017,-0.32,-1.01,0.09,29.01,103.22,7.36,31.78
83027,-0.27,-1.02,0.07,32.00,110.21,18.85,31.82
83037,-0.24,-1.04,0.11,31.13,114.89,23.30,31.78
83047,-0.19,-1.05,0.13,30.40,113.51,18.32,31.87
83057,-0.16,-1.02,0.15,27.80,109.97,6.56,31.78
83067,-0.16,-1.02,0.13,27.15,100.60,-11.40,31.87
83077,-0.17,-1.01,0.11,23.83,94.69,-31.62,31.78
83087,-0.20,-0.99,0.09,19.85,84.93,-48.34,31.78
83097,-0.25,-0.96,0.04,14.56,77.16,-56.32,31.78
83107,-0.31,-0.95,0.05,6.96,72.43,-54.82,31.87
83117,-0.31,-0.97,0.03,-0.26,74.00,-44.89,31.82
83127,-0.29,-0.99,0.05,-4.93,77.71,-30.05,31.82
83137,-0.25,-1.02,0.10,-3.80,87.73,-13.98,31.82
83147,-0.21,-1.03,0.14,3.71,96.27,-0.67,31.82
83157,-0.21,-1.05,0.17,14.64,100.17,6.09,31.82
83167,-0.23,-1.05,0.19,22.64,98.53,4.53,31.82
83177,-0.25,-1.03,0.19,27.13,94.92,-2.52,31.92
83187,-0.26,-1.03,0.18,25.92,86.63,-12.73,31.87
83197,-0.30,-1.00,0.16,20.72,77.24,-22.38,31.78
83207,-0.31,-0.98,0.12,14.37,69.66,-26.84,31.78
83217,-0.29,-0.97,0.10,8.75,66.02,-25.92,31.78
83227,-0.28,-0.97,0.09,5.88,66.02,-19.48,31.78
83237,-0.26,-0.99,0.09,4.70,70.50,-10.24,31.87
83247,-0.25,-1.02,0.12,5.74,76.03,-0.96,31.87
83257,-0.24,-1.04,0.16,6.17,81.10,0.50,31.87
83267,-0.27,-1.08,0.24,3.94,75.15,-10.46,31.78
83277,-0.34,-1.07,0.29,1.45,57.97,-26.99,31.92
83287,-0.37,-1.04,0.28,-1.91,41.25,-44.69,31.92
83297,-0.41,-0.99,0.27,-9.02,27.24,-61.34,31.82
83307,-0.45,-0.91,0.28,-19.97,12.27,-74.27,31.73
83317,-0.44,-0.85,0.21,-32.18,1.34,-73.83,31.82
83327,-0.41,-0.83,0.16,-38.32,-1.63,-63.71,31.92
83337,-0.42,-0.88,0.14,-39.47,3.11,-41.66,31.82
83347,-0.39,-0.93,0.14,-36.31,12.44,-12.35,31.82
83357,-0.37,-1.02,0.18,-29.04,24.87,16.56,31.87
83367,-0.33,-1.08,0.23,-19.86,31.69,37.04,31.87
83377,-0.26,-1.09,0.27,-10.72,34.08,44.82,31.78
83387,-0.21,-1.09,0.29,-2.95,33.54,43.18,31.87
83397,-0.17,-1.05,0.25,4.58,30.53,35.63,31.87
83407,-0.17,-1.02,0.21,8.20,26.99,27.42,31.87
83417,-0.18,-0.98,0.15,10.38,19.51,21.15,31.78
83427,-0.19,-0.96,0.10,8.76,17.56,19.88,31.87
83437,-0.21,-0.95,0.08,4.21,19.01,21.68,31.92
83447,-0.21,-0.95,0.09,-1.65,22.26,24.47,31.82
83457,-0.20,-0.96,0.12,-4.50,25.11,25.04,31.82
83467,-0.21,-0.97,0.14,-4.50,24.89,23.42,31.82
83477,-0.21,-0.97,0.13,-2.75,21.86,21.98,31.73
83487,-0.21,-0.98,0.13,-1.56,20.85,21.48,31.92
83497,-0.22,-1.00,0.15,-1.88,21.13,20.95,31.82
83507,-0.24,-1.01,0.18,-2.03,20.34,17.79,31.82
83517,-0.24,-1.02,0.19,-2.26,18.53,14.18,31.82
83527,-0.22,-1.03,0.18,-0.11,17.56,9.28,31.87
83537,-0.24,-1.03,0.19,0.66,14.29,3.08,31.87
83547,-0.25,-1.01,0.18,0.43,9.44,-4.44,31.68
