Millis,Acce_X,Acce_Y,Acce_Z,Gyro_X,Gyro_Y,Gyro_Z,Temp
104377,-0.01,-0.49,0.93,-3.63,1.42,-2.47,31.92
104387,-0.02,-0.49,0.95,-4.21,2.14,-3.25,31.87
104397,-0.04,-0.48,0.97,-4.98,-0.43,-4.61,31.78
104407,-0.07,-0.49,0.96,-6.92,-7.60,-6.35,31.87
104417,-0.06,-0.47,0.96,-7.77,-15.30,-6.44,31.87
104427,-0.02,-0.46,0.92,-7.76,-16.90,-4.56,31.87
104437,0.06,-0.45,0.89,-7.83,-10.08,-1.66,31.97
104447,0.14,-0.46,0.87,-9.36,4.17,0.53,31.87
104457,0.18,-0.51,0.88,-10.40,20.23,0.41,31.82
104467,0.17,-0.57,0.93,-9.92,33.69,-3.69,31.92
104477,0.09,-0.59,1.00,-7.79,37.76,-9.36,31.82
104487,-0.03,-0.59,1.06,-3.30,28.99,-14.64,31.92
104497,-0.12,-0.57,1.07,0.79,14.58,-17.18,31.87
104507,-0.10,-0.55,0.99,-0.87,13.80,-18.76,31.92
104517,-0.16,-0.53,1.04,3.05,-12.85,-15.50,31.92
104527,-0.07,-0.46,0.91,4.66,-10.84,-8.67,31.97
104537,-0.02,-0.43,0.86,3.25,-6.93,-4.92,31.87
104547,0.01,-0.44,0.85,1.98,1.53,-2.67,31.97
104557,0.00,-0.46,0.85,-1.27,7.30,-3.42,31.97
104567,-0.03,-0.47,0.88,-4.96,8.61,-5.76,31.87
104577,-0.07,-0.50,0.91,-6.64,5.42,-8.50,31.87
104587,-0.11,-0.51,0.92,-7.63,0.78,-10.89,31.97
104597,-0.14,-0.49,0.93,-8.90,-3.86,-11.07,31.97
104607,-0.15,-0.48,0.93,-8.78,-5.97,-7.73,31.82
104617,-0.13,-0.49,0.93,-7.80,-6.53,-3.10,31.92
104627,-0.10,-0.50,0.92,-6.56,-4.67,1.39,31.92
104637,-0.07,-0.51,0.93,-5.73,-0.08,4.58,31.92
104647,-0.07,-0.53,0.93,-4.20,3.01,5.33,31.82
104657,-0.07,-0.53,0.93,-3.74,0.75,3.05,31.92
104667,-0.10,-0.52,0.94,-5.50,-5.85,-0.29,31.78
104677,-0.13,-0.50,0.94,-5.92,-11.53,-1.10,31.92
104687,-0.14,-0.49,0.94,-6.23,-13.73,1.45,31.97
104697,-0.14,-0.48,0.92,-5.77,-9.21,7.56,31.87
104707,-0.10,-0.49,0.92,-7.07,-2.85,11.73,31.97
104717,-0.08,-0.51,0.93,-8.55,-1.59,12.49,31.87
104727,-0.07,-0.50,0.93,-11.56,-2.79,11.30,31.97
104737,-0.03,-0.50,0.92,-14.52,-3.94,9.34,31.97
104747,-0.02,-0.52,0.93,-15.62,-4.56,7.02,31.78
104757,-0.02,-0.51,0.94,-19.18,-3.08,4.69,31.92
104767,-0.00,-0.52,0.94,-23.25,-2.17,1.11,31.92
104777,0.02,-0.51,0.93,-28.29,-4.61,-4.78,31.92
104787,0.03,-0.48,0.89,-35.77,-6.99,-11.74,32.01
104797,0.03,-0.50,0.85,-53.40,-15.56,-20.98,31.92
104807,0.16,-0.40,0.64,-85.11,-7.28,-40.34,31.92
104817,0.03,-0.39,0.70,-134.82,-29.34,-53.36,31.92
104827,0.07,-0.25,0.50,-192.18,-29.53,-55.08,31.92
104837,-0.09,-0.24,0.47,-247.10,-28.20,-47.86,31.97
104847,-0.21,-0.23,0.43,-284.75,-21.04,-26.56,31.97
104857,-0.34,-0.34,0.47,-297.11,-8.29,-0.34,31.87
104867,-0.43,-0.52,0.57,-288.27,-12.82,15.60,31.97
104877,-0.43,-0.73,0.57,-282.21,-40.00,22.85,31.87
104887,-0.39,-0.84,0.51,-296.06,-83.56,17.05,31.87
104897,-0.21,-0.86,0.34,-323.82,-118.03,11.01,31.87
104907,0.07,-0.84,0.18,-363.02,-137.86,9.71,31.97
104917,0.20,-0.94,-0.00,-401.44,-123.21,16.27,32.01
104927,0.28,-1.12,0.02,-426.63,-95.62,27.48,31.92
104937,0.23,-1.30,0.13,-432.55,-73.10,40.21,31.92
104947,0.11,-1.44,0.19,-417.74,-50.47,55.80,31.82
104957,0.01,-1.63,0.44,-392.09,-31.63,62.56,31.82
104967,-0.02,-1.74,0.60,-346.52,-37.40,56.73,31.87
104977,0.01,-1.79,0.64,-282.58,-37.92,47.71,31.92
104987,0.14,-1.77,0.65,-205.62,-27.13,33.88,31.82
104997,0.21,-1.68,0.59,-128.20,-16.58,26.38,31.87
105007,0.21,-1.47,0.41,-60.84,-3.91,28.02,31.97
105017,0.19,-1.34,0.30,-11.50,13.74,32.34,31.87
105027,0.20,-1.18,0.11,4.60,29.77,34.61,31.87
105037,0.12,-1.06,-0.00,-6.21,32.58,30.50,31.87
105047,0.05,-0.98,-0.01,-24.40,22.15,20.52,31.87
105057,-0.01,-0.98,0.02,-38.43,9.40,11.80,31.87
105067,-0.09,-0.98,0.01,-43.80,-7.50,6.72,31.97
105077,-0.15,-1.00,0.05,-43.42,-18.09,7.74,31.82
105087,-0.18,-1.04,0.09,-37.56,-27.19,10.35,31.82
105097,-0.19,-1.05,0.13,-25.04,-31.73,16.35,31.82
105107,-0.21,-1.03,0.11,-9.34,-35.62,23.51,31.92
105117,-0.19,-1.04,0.10,5.86,-33.39,29.86,31.92
105127,-0.19,-1.05,0.09,19.05,-31.94,33.50,32.01
105137,-0.19,-1.05,0.05,23.80,-36.58,33.91,31.87
105147,-0.18,-1.00,0.00,18.69,-37.98,31.44,31.92
105157,-0.20,-0.99,0.01,9.18,-41.53,25.54,31.97
105167,-0.22,-0.98,0.05,-0.98,-45.57,17.94,31.87
105177,-0.23,-0.98,0.04,-5.36,-54.05,12.23,31.87
105187,-0.26,-0.98,0.03,-4.96,-57.39,9.21,31.87
105197,-0.29,-0.99,0.04,-1.73,-60.50,11.63,31.87
105207,-0.28,-0.97,0.01,0.40,-57.62,19.45,31.87
105217,-0.29,-0.95,0.01,0.05,-53.44,27.97,31.97
105227,-0.30,-0.94,0.00,-3.18,-53.05,36.18,31.92
105237,-0.28,-0.94,-0.01,-6.47,-54.78,41.66,31.92
105247,-0.23,-0.97,-0.00,-9.85,-59.19,39.63,31.92
105257,-0.20,-1.00,-0.00,-14.58,-61.98,34.20,32.01
105267,-0.19,-1.02,-0.01,-20.98,-64.92,28.78,31.92
105277,-0.18,-1.03,0.02,-24.03,-67.28,23.40,31.82
105287,-0.16,-1.07,0.05,-21.25,-69.02,17.59,31.92
105297,-0.15,-1.08,0.07,-14.17,-69.68,12.40,32.01
105307,-0.16,-1.06,0.04,-7.18,-71.79,9.53,31.87
105317,-0.16,-1.06,-0.01,-5.48,-72.00,9.76,31.87
105327,-0.16,-1.04,-0.01,-7.45,-71.69,11.85,31.87
105337,-0.14,-1.06,0.00,-8.92,-65.74,14.67,31.87
105347,-0.12,-1.09,0.03,-6.93,-59.34,15.89,31.97
105357,-0.14,-1.10,0.05,-3.85,-59.59,12.03,31.97
105367,-0.13,-1.10,0.06,0.49,-60.84,5.44,31.87
105377,-0.10,-1.10,0.05,3.79,-63.16,-4.93,31.82
105387,-0.12,-1.05,0.04,2.34,-68.67,-17.95,31.92
105397,-0.10,-1.03,0.01,-0.17,-72.05,-28.17,31.92
105407,-0.15,-0.99,-0.01,-3.15,-74.79,-33.45,31.92
105417,-0.19,-0.97,0.00,-4.49,-76.47,-32.02,31.92
105427,-0.21,-0.98,0.00,-2.93,-77.37,-25.42,31.82
105437,-0.24,-1.00,0.04,0.85,-76.43,-16.34,31.97
105447,-0.24,-1.01,0.05,6.95,-74.78,-5.73,31.82
105457,-0.21,-1.01,0.04,12.14,-75.77,1.68,31.87
105467,-0.17,-0.99,-0.02,9.25,-75.37,3.24,31.97
105477,-0.14,-1.02,0.01,5.42,-71.95,3.89,31.87
105487,-0.13,-1.01,0.01,0.53,-72.15,1.48,31.87
105497,-0.12,-1.03,0.02,-3.62,-76.08,-2.84,31.87
105507,-0.12,-1.04,0.03,-5.30,-77.21,-5.80,31.97
105517,-0.12,-1.05,0.06,-3.48,-79.89,-7.04,31.87
105527,-0.14,-1.05,0.05,0.98,-82.70,-5.25,31.87
105537,-0.13,-1.05,0.06,5.82,-84.23,-2.27,31.92
105547,-0.15,-1.04,0.04,8.35,-88.03,0.12,31.82
105557,-0.07,-1.02,-0.03,4.06,-83.74,2.90,31.82
105567,-0.07,-1.01,-0.02,-3.10,-76.85,6.03,31.92
105577,-0.09,-1.01,0.02,-9.37,-72.21,8.92,31.82
105587,-0.08,-1.03,0.04,-10.81,-70.05,9.57,31.92
105597,-0.09,-1.02,0.04,-10.49,-72.35,10.08,31.92
105607,-0.10,-1.02,0.06,-8.92,-79.80,8.56,31.87
105617,-0.09,-1.02,0.05,-9.65,-84.35,7.95,31.87
105627,-0.10,-1.00,0.05,-14.55,-92.93,3.83,31.97
105637,-0.11,-0.98,0.06,-18.69,-103.80,-3.68,31.87
105647,-0.11,-0.95,0.01,-21.36,-111.48,-9.10,31.87
105657,-0.11,-0.89,-0.06,-23.53,-110.69,-8.44,31.97
105667,-0.08,-0.85,-0.13,-23.68,-96.95,2.08,31.97
105677,-0.06,-0.84,-0.16,-27.97,-77.34,14.29,31.87
105687,-0.08,-0.91,-0.05,-31.60,-62.12,23.53,31.87
105697,-0.12,-0.95,0.04,-31.34,-63.76,26.64,32.01
105707,-0.12,-1.00,0.09,-28.09,-67.60,25.45,31.82
105717,-0.15,-1.03,0.08,-19.39,-83.95,24.09,31.92
105727,-0.09,-1.05,0.07,-8.15,-82.11,25.80,31.92
105737,-0.07,-1.07,0.06,-1.48,-85.33,24.05,31.97
105747,-0.02,-1.05,0.05,-2.27,-84.50,19.98,31.92
105757,-0.02,-1.04,0.05,-5.56,-79.62,14.90,31.92
105767,-0.04,-1.00,0.01,-10.95,-75.60,12.08,31.87
105777,-0.07,-1.02,0.02,-14.78,-70.23,11.45,31.97
105787,-0.11,-1.04,0.06,-15.31,-70.60,10.11,31.97
105797,-0.14,-1.05,0.07,-13.63,-74.03,8.69,31.87
105807,-0.13,-1.04,0.09,-10.47,-76.46,5.97,31.97
105817,-0.12,-1.03,0.11,-9.39,-81.31,-0.82,31.87
105827,-0.15,-1.01,0.10,-12.95,-86.92,-9.59,31.87
105837,-0.20,-0.98,0.07,-14.92,-93.16,-13.94,31.92
105847,-0.20,-0.95,-0.01,-14.27,-91.94,-7.31,31.82
105857,-0.16,-0.93,-0.06,-15.56,-80.21,4.43,31.82
105867,-0.14,-0.95,-0.02,-17.82,-71.22,12.79,31.82
105877,-0.13,-0.95,0.00,-19.66,-66.00,16.15,31.92
105887,-0.11,-0.98,0.03,-18.95,-68.98,12.67,31.82
105897,-0.12,-0.98,0.09,-19.79,-77.79,2.23,31.92
105907,-0.13,-0.97,0.08,-20.56,-88.47,-8.93,31.87
105917,-0.18,-0.98,0.07,-22.34,-100.14,-13.45,31.87
105927,-0.19,-0.99,0.06,-21.10,-104.79,-8.46,31.87
105937,-0.19,-1.00,0.04,-19.50,-100.27,4.23,31.87
105947,-0.19,-1.01,0.05,-16.70,-94.08,18.46,31.78
105957,-0.15,-1.02,0.05,-10.87,-82.55,30.98,31.87
105967,-0.12,-1.01,0.09,-4.75,-72.92,33.27,31.97
105977,-0.07,-0.96,0.07,-4.47,-72.17,23.71,31.87
105987,-0.10,-0.91,0.07,-6.61,-87.16,5.33,31.78
105997,-0.12,-0.81,-0.08,-20.24,-98.05,-7.97,31.92
106007,-0.17,-0.75,-0.15,-34.02,-108.58,-14.00,31.73
106017,-0.16,-0.75,-0.21,-45.30,-105.07,-8.50,31.92
106027,-0.18,-0.80,-0.17,-57.80,-95.37,2.55,31.82
106037,-0.19,-0.89,-0.09,-64.37,-87.16,15.28,31.87
106047,-0.19,-0.96,0.00,-59.63,-79.53,27.28,31.82
106057,-0.18,-1.03,0.08,-47.86,-75.11,36.38,31.82
106067,-0.21,-1.08,0.14,-35.73,-77.08,42.38,31.87
106077,-0.22,-1.11,0.12,-23.33,-79.65,48.60,31.87
106087,-0.21,-1.12,0.09,-14.11,-75.82,57.40,31.78
106097,-0.20,-1.15,0.07,-5.16,-70.06,67.80,31.87
106107,-0.15,-1.16,0.07,0.14,-60.53,75.33,31.78
106117,-0.11,-1.16,0.06,3.53,-54.70,76.26,31.87
106127,-0.05,-1.13,0.01,4.05,-49.82,69.47,31.87
106137,-0.02,-1.08,-0.03,1.01,-47.97,55.79,31.87
106147,-0.01,-1.02,-0.09,-5.94,-50.03,39.31,31.87
106157,-0.05,-0.97,-0.11,-17.50,-57.39,20.90,31.87
106167,-0.09,-0.92,-0.13,-30.72,-64.40,5.42,31.82
106177,-0.15,-0.91,-0.12,-42.60,-69.94,-3.76,31.82
106187,-0.20,-0.93,-0.10,-49.95,-70.32,-4.95,31.92
106197,-0.22,-0.97,-0.06,-52.69,-65.15,-1.34,31.82
106207,-0.23,-0.99,-0.02,-50.89,-58.72,3.34,31.92
106217,-0.23,-1.01,-0.00,-45.82,-53.79,7.69,31.92
106227,-0.22,-1.02,0.01,-39.83,-51.40,10.79,31.92
106237,-0.18,-1.03,0.01,-35.59,-50.34,11.63,31.82
106247,-0.17,-1.02,-0.01,-33.82,-49.83,10.18,31.87
106257,-0.14,-1.03,-0.03,-33.59,-48.50,8.05,31.78
106267,-0.13,-1.04,-0.02,-34.06,-47.82,4.56,31.78
106277,-0.13,-1.03,-0.01,-34.98,-46.93,-0.56,31.87
106287,-0.16,-1.02,-0.00,-34.63,-47.13,-5.04,31.87
106297,-0.19,-1.00,-0.02,-33.01,-46.99,-7.04,31.97
106307,-0.23,-0.98,-0.02,-32.00,-46.72,-5.42,31.78
106317,-0.26,-0.98,-0.03,-30.69,-44.73,-0.66,31.87
106327,-0.28,-1.01,-0.01,-29.05,-42.58,6.58,31.87
106337,-0.28,-1.04,0.01,-26.81,-41.11,14.46,31.92
106347,-0.26,-1.06,0.03,-22.70,-38.87,20.43,31.82
106357,-0.23,-1.06,0.04,-17.86,-38.40,22.31,31.92
106367,-0.21,-1.06,0.03,-12.96,-42.02,20.66,31.82
106377,-0.21,-1.05,0.01,-11.59,-44.18,17.19,31.92
106387,-0.21,-1.05,-0.04,-11.48,-46.70,15.36,31.92
106397,-0.21,-1.04,-0.04,-13.65,-45.80,14.38,31.92
106407,-0.21,-1.02,-0.05,-16.81,-45.02,13.31,31.82
106417,-0.21,-1.01,-0.05,-19.59,-44.96,11.66,31.87
106427,-0.21,-0.99,-0.05,-21.50,-44.32,10.23,31.87
106437,-0.23,-0.98,-0.03,-23.54,-45.27,7.25,31.97
106447,-0.25,-0.97,-0.01,-24.53,-47.88,4.96,31.87
106457,-0.28,-0.95,-0.01,-23.01,-51.51,6.00,31.87
106467,-0.29,-0.93,0.00,-19.28,-51.53,10.85,31.78
106477,-0.30,-0.92,-0.01,-14.43,-49.63,18.18,31.97
106487,-0.27,-0.91,-0.04,-8.08,-43.82,27.37,31.87
106497,-0.26,-0.91,-0.04,-5.56,-38.47,31.53,31.92
106507,-0.28,-0.88,-0.04,-8.08,-38.40,30.02,31.82
106517,-0.28,-0.86,-0.05,-16.29,-42.70,24.87,31.82
106527,-0.31,-0.87,-0.07,-25.07,-51.89,20.55,31.82
106537,-0.34,-0.93,-0.08,-29.66,-58.55,23.27,31.92
106547,-0.31,-1.03,-0.06,-28.02,-57.60,30.06,31.87
106557,-0.27,-1.10,-0.00,-21.71,-51.66,35.62,31.82
106567,-0.24,-1.15,0.06,-12.61,-46.76,37.62,31.92
106577,-0.21,-1.16,0.06,-3.28,-42.79,35.18,31.87
106587,-0.19,-1.14,0.04,1.62,-36.89,28.12,31.87
106597,-0.21,-1.10,0.01,1.28,-35.51,19.76,31.87
106607,-0.22,-1.05,-0.03,-2.79,-36.79,12.06,31.78
106617,-0.24,-1.02,-0.08,-7.65,-37.13,8.81,31.78
106627,-0.24,-1.04,-0.10,-12.37,-32.84,8.12,31.87
106637,-0.26,-1.06,-0.06,-16.82,-27.91,6.75,31.78
106647,-0.29,-1.07,-0.02,-19.92,-26.85,4.18,31.87
106657,-0.31,-1.05,0.00,-22.38,-29.33,0.78,31.82
106667,-0.32,-1.04,0.01,-23.11,-33.45,-1.08,31.82
106677,-0.32,-1.03,0.01,-23.11,-34.70,-2.00,31.92
106687,-0.34,-1.02,0.02,-23.10,-35.71,-1.10,31.82
106697,-0.33,-1.03,0.01,-20.53,-34.70,2.56,31.82
106707,-0.33,-1.02,0.02,-15.40,-30.06,7.94,31.82
106717,-0.33,-1.03,0.03,-10.79,-25.36,12.63,31.87
106727,-0.34,-1.04,0.03,-6.29,-21.94,16.82,31.82
106737,-0.33,-1.02,0.02,-3.63,-20.34,19.08,31.87
106747,-0.31,-1.01,0.00,-1.54,-19.82,20.02,31.97
106757,-0.28,-0.97,-0.03,0.53,-20.21,19.37,31.78
106767,-0.26,-0.94,-0.05,-0.43,-21.04,16.84,31.87
106777,-0.25,-0.91,-0.05,-3.27,-22.53,11.73,31.87
106787,-0.27,-0.88,-0.07,-7.63,-23.59,6.17,31.87
106797,-0.31,-0.86,-0.08,-13.48,-26.24,2.50,31.68
106807,-0.34,-0.84,-0.09,-19.01,-27.71,1.57,31.87
106817,-0.35,-0.83,-0.07,-23.27,-27.28,3.79,31.82
106827,-0.36,-0.84,-0.04,-26.20,-25.37,6.11,31.82
106837,-0.36,-0.83,0.01,-23.68,-23.54,8.34,31.82
106847,-0.36,-0.81,0.02,-18.00,-21.39,12.38,31.82
106857,-0.39,-0.78,0.04,-10.38,-21.28,18.75,31.73
106867,-0.37,-0.71,0.01,-1.80,-21.51,27.27,31.82
106877,-0.32,-0.67,-0.04,3.40,-15.83,33.73,31.92
106887,-0.31,-0.69,-0.06,-0.15,-11.31,33.63,31.87
106897,-0.34,-0.70,-0.05,-10.89,-15.91,28.72,31.78
106907,-0.36,-0.72,-0.08,-21.82,-21.34,24.43,31.87
106917,-0.37,-0.77,-0.07,-31.94,-24.34,21.88,31.78
106927,-0.36,-0.84,-0.03,-39.07,-24.41,18.95,31.87
106937,-0.38,-0.91,0.02,-41.45,-23.88,16.73,31.78
106947,-0.39,-0.96,0.05,-39.16,-22.58,16.67,31.97
106957,-0.42,-1.05,0.10,-33.05,-21.22,18.24,31.87
106967,-0.46,-1.12,0.11,-25.25,-20.63,20.49,31.87
106977,-0.45,-1.15,0.12,-18.26,-21.01,23.31,31.78
106987,-0.44,-1.15,0.11,-11.08,-21.04,24.93,31.82
106997,-0.42,-1.13,0.07,-4.98,-20.18,26.63,31.92
107007,-0.40,-1.12,0.03,-2.32,-19.39,27.63,31.82
107017,-0.39,-1.11,-0.01,-1.28,-18.35,28.64,31.82
107027,-0.37,-1.08,-0.02,-2.08,-17.02,29.13,31.82
107037,-0.34,-1.08,-0.05,-1.74,-14.78,28.38,31.92
107047,-0.31,-1.07,-0.05,-3.24,-11.30,24.34,31.92
107057,-0.30,-1.05,-0.05,-7.42,-11.45,15.69,31.78
107067,-0.31,-1.05,-0.06,-12.98,-14.35,6.27,31.92
107077,-0.34,-1.06,-0.09,-18.58,-18.23,1.13,31.87
107087,-0.35,-1.08,-0.07,-20.96,-18.02,0.73,31.97
107097,-0.35,-1.10,-0.05,-18.23,-14.41,3.33,31.87
107107,-0.33,-1.12,-0.04,-12.60,-7.66,6.38,31.78
107117,-0.33,-1.10,-0.01,-7.27,-3.66,6.70,31.78
107127,-0.34,-1.05,-0.01,-3.45,-3.30,3.73,31.97
107137,-0.36,-1.00,-0.03,-1.86,-4.96,1.02,31.87
107147,-0.38,-0.95,-0.06,-3.88,-6.46,0.12,31.87
107157,-0.40,-0.94,-0.04,-6.76,-8.05,0.79,31.82
107167,-0.39,-0.94,-0.06,-7.36,-8.14,3.34,31.92
107177,-0.37,-0.97,-0.06,-5.79,-5.34,6.81,31.92
107187,-0.35,-0.98,-0.02,-1.86,-2.84,8.66,31.92
107197,-0.33,-0.98,-0.02,2.15,0.08,8.73,31.92
107207,-0.31,-0.96,-0.03,5.77,2.52,6.69,31.92
107217,-0.31,-0.93,-0.06,7.10,2.99,2.52,31.92
107227,-0.32,-0.92,-0.07,4.72,0.87,-1.28,31.78
107237,-0.33,-0.91,-0.11,0.50,-0.50,-2.84,31.78
107247,-0.33,-0.90,-0.12,-4.99,1.05,-2.03,31.87
107257,-0.31,-0.92,-0.12,-9.36,6.37,-0.98,31.97
107267,-0.34,-0.93,-0.07,-10.58,6.55,-0.44,31.87
107277,-0.34,-0.94,-0.06,-11.50,9.19,-0.35,31.78
107287,-0.33,-0.94,-0.05,-9.73,9.34,-0.31,31.78
107297,-0.33,-0.94,-0.05,-8.06,11.60,-0.17,31.87
107307,-0.33,-0.95,-0.07,-7.95,13.73,-0.24,31.87
107317,-0.35,-0.94,-0.06,-8.87,14.29,-0.78,31.87
107327,-0.36,-0.95,-0.06,-10.52,13.82,-0.79,31.82
107337,-0.35,-0.96,-0.07,-11.30,13.25,-0.70,31.92
107347,-0.36,-0.98,-0.03,-10.50,13.68,-0.23,31.82
107357,-0.36,-0.98,-0.01,-7.71,14.60,0.92,31.82
107367,-0.36,-0.98,0.00,-2.34,16.79,2.31,31.82
107377,-0.35,-0.98,0.00,2.44,19.63,2.81,31.82
107387,-0.35,-0.95,-0.02,5.88,21.28,2.69,31.82
107397,-0.36,-0.92,-0.05,6.55,20.49,2.41,31.97
107407,-0.35,-0.90,-0.07,7.01,20.18,2.93,31.82
107417,-0.36,-0.85,-0.09,4.92,15.16,5.66,31.87
107427,-0.36,-0.90,-0.10,8.87,25.51,6.40,31.97
107437,-0.36,-0.90,-0.07,9.15,28.21,6.98,31.87
107447,-0.36,-0.91,-0.07,6.98,27.30,4.69,31.87
107457,-0.38,-0.91,-0.07,4.29,25.88,0.72,31.87
107467,-0.36,-0.94,-0.07,1.10,24.95,-2.69,31.87
107477,-0.37,-0.96,-0.06,-2.44,20.84,-5.98,31.87
107487,-0.38,-0.99,-0.04,-5.30,20.14,-7.77,31.87
107497,-0.39,-1.02,-0.03,-5.74,19.60,-8.02,31.87
107507,-0.39,-1.06,-0.01,-3.85,21.89,-5.98,31.82
107517,-0.41,-1.10,0.03,1.22,24.55,-1.42,31.82
107527,-0.40,-1.11,0.04,8.96,29.74,3.71,31.82
107537,-0.38,-1.11,0.05,17.83,35.42,7.82,31.92
107547,-0.36,-1.10,0.02,24.14,39.27,8.90,31.92
107557,-0.36,-1.07,-0.01,28.31,39.88,6.87,31.82
107567,-0.35,-1.05,-0.05,30.43,37.88,4.46,31.97
107577,-0.34,-1.04,-0.09,29.22,35.28,0.52,31.82
107587,-0.34,-1.03,-0.14,26.60,33.73,-2.70,31.97
107597,-0.34,-1.03,-0.14,22.69,34.12,-4.78,31.87
107607,-0.34,-1.02,-0.13,19.88,36.76,-6.34,31.87
107617,-0.34,-1.02,-0.08,18.35,40.00,-7.85,31.87
107627,-0.37,-1.01,-0.05,17.94,42.41,-10.02,31.87
107637,-0.38,-1.00,-0.04,19.30,44.40,-11.82,31.87
107647,-0.39,-0.99,-0.04,20.66,46.61,-12.27,31.87
107657,-0.38,-0.98,-0.04,21.86,48.64,-12.49,31.87
107667,-0.36,-0.99,-0.04,22.55,52.23,-12.98,31.82
107677,-0.38,-0.99,-0.04,21.74,54.79,-13.77,31.92
107687,-0.38,-0.99,-0.04,22.03,55.83,-13.79,31.82
107697,-0.38,-0.98,-0.05,21.91,55.33,-12.92,31.82
107707,-0.41,-0.98,-0.01,25.80,50.64,-12.43,31.92
107717,-0.40,-1.02,-0.10,27.45,48.46,-12.23,31.82
107727,-0.43,-0.97,-0.05,27.50,42.49,-8.93,31.92
107737,-0.39,-0.97,-0.05,30.29,41.04,-6.00,31.87
107747,-0.37,-0.98,-0.06,33.74,42.90,-2.89,31.87
107757,-0.34,-1.00,-0.06,37.82,45.62,0.15,31.97
107767,-0.31,-1.02,-0.08,42.52,50.34,2.47,31.87
107777,-0.29,-1.01,-0.08,45.53,54.55,1.98,31.97
107787,-0.28,-0.99,-0.09,45.79,59.27,-1.97,31.87
107797,-0.32,-0.95,-0.08,42.90,58.84,-7.54,31.97
107807,-0.35,-0.91,-0.09,38.87,54.96,-12.89,31.87
107817,-0.38,-0.88,-0.11,34.60,52.24,-15.16,31.87
107827,-0.38,-0.86,-0.12,30.50,50.92,-15.27,31.87
107837,-0.38,-0.86,-0.11,26.85,52.46,-14.70,31.82
107847,-0.38,-0.86,-0.12,23.68,54.90,-13.44,31.92
107857,-0.38,-0.85,-0.11,21.27,57.59,-11.40,31.92
107867,-0.39,-0.86,-0.10,19.10,59.57,-10.02,31.92
107877,-0.38,-0.87,-0.09,16.78,59.76,-7.95,31.92
107887,-0.37,-0.89,-0.09,16.27,59.83,-6.93,31.92
107897,-0.35,-0.90,-0.07,15.65,61.63,-6.93,31.92
107907,-0.34,-0.91,-0.06,15.08,64.32,-8.52,31.87
107917,-0.35,-0.91,-0.03,14.89,64.00,-11.68,31.87
107927,-0.37,-0.91,-0.04,15.08,62.31,-14.49,31.87
107937,-0.38,-0.91,-0.05,16.21,61.73,-15.25,31.87
107947,-0.39,-0.92,-0.04,16.50,61.74,-14.70,31.97
107957,-0.39,-0.92,-0.03,17.74,63.76,-13.37,31.78
107967,-0.41,-0.91,-0.02,18.12,65.39,-12.06,31.87
107977,-0.43,-0.91,-0.01,19.60,64.79,-8.81,31.87
107987,-0.44,-0.90,-0.03,21.51,64.78,-4.67,31.78
107997,-0.43,-0.90,-0.04,22.78,64.78,-1.48,31.87
108007,-0.40,-0.90,-0.04,21.77,65.39,-0.11,31.82
108017,-0.38,-0.91,-0.05,20.27,64.92,-0.99,31.82
108027,-0.38,-0.92,-0.07,18.09,64.24,-3.22,31.82
108037,-0.34,-0.93,-0.07,16.64,69.01,-4.08,31.92
108047,-0.38,-0.92,-0.05,16.18,67.68,-6.03,31.92
108057,-0.41,-0.92,-0.02,16.31,65.21,-7.48,31.92
108067,-0.42,-0.93,-0.00,18.37,64.32,-7.48,31.92
108077,-0.43,-0.92,0.00,21.33,64.24,-5.82,31.87
108087,-0.42,-0.92,0.00,23.88,65.92,-3.33,31.82
108097,-0.41,-0.92,-0.03,25.57,69.13,-0.20,31.87
108107,-0.38,-0.94,-0.05,25.91,73.13,2.70,31.87
108117,-0.33,-0.95,-0.07,26.18,80.26,3.22,31.87
108127,-0.26,-0.98,-0.09,25.98,91.54,-0.17,31.87
108137,-0.17,-0.99,-0.11,27.77,106.00,-6.58,31.87
108147,-0.15,-0.99,-0.12,28.20,119.83,-16.49,31.87
108157,-0.32,-1.02,-0.05,22.96,113.50,-28.52,31.87
108167,-0.51,-1.01,0.01,14.93,92.81,-38.64,31.97
108177,-0.56,-0.95,0.02,10.11,74.78,-39.40,31.97
108187,-0.60,-0.91,0.00,13.34,61.31,-32.60,31.92
108197,-0.59,-0.88,-0.03,15.42,57.63,-21.19,31.92
108207,-0.55,-0.87,-0.03,19.33,60.32,-7.60,31.82
108217,-0.50,-0.88,-0.03,24.40,66.82,4.05,31.92
108227,-0.46,-0.89,-0.04,27.50,70.98,10.99,32.01
108237,-0.40,-0.90,-0.05,28.26,74.90,15.37,31.82
108247,-0.32,-0.92,-0.06,29.88,80.00,17.01,31.97
108257,-0.25,-0.93,-0.09,33.51,84.23,15.05,31.92
108267,-0.16,-0.96,-0.14,36.78,93.07,9.39,31.92
108277,-0.12,-0.99,-0.17,35.21,102.90,-0.72,31.82
108287,-0.24,-1.03,-0.09,27.91,98.23,-15.04,31.87
108297,-0.35,-1.03,-0.04,22.85,81.30,-28.23,31.87
108307,-0.40,-0.97,-0.05,19.86,66.53,-34.87,31.97
108317,-0.40,-0.95,-0.07,20.61,61.13,-32.64,31.87
108327,-0.37,-0.93,-0.10,24.49,65.16,-23.56,31.87
108337,-0.34,-0.92,-0.12,30.43,74.32,-11.15,31.87
108347,-0.29,-0.91,-0.18,35.98,84.90,-0.08,31.87
108357,-0.26,-0.91,-0.21,36.90,95.45,5.13,31.87
108367,-0.30,-0.91,-0.20,30.09,95.24,4.44,31.87
108377,-0.32,-0.91,-0.14,21.25,88.67,-1.36,31.97
108387,-0.34,-0.92,-0.12,12.79,75.10,-10.32,31.92
108397,-0.32,-0.92,-0.13,6.47,65.89,-17.88,31.92
108407,-0.31,-0.94,-0.12,5.37,60.20,-20.89,31.82
108417,-0.29,-0.94,-0.15,9.54,63.18,-17.45,31.92
108427,-0.29,-0.95,-0.14,14.35,70.73,-10.40,31.82
108437,-0.26,-0.95,-0.16,18.84,78.56,-5.18,31.92
108447,-0.24,-0.93,-0.18,20.98,86.27,-4.66,31.92
108457,-0.23,-0.90,-0.17,18.18,91.07,-10.92,31.78
108467,-0.23,-0.88,-0.17,12.66,88.55,-23.77,31.92
108477,-0.29,-0.84,-0.18,3.42,77.65,-40.78,31.97
108487,-0.25,-0.82,-0.19,-3.40,73.69,-55.07,31.97
108497,-0.26,-0.79,-0.20,-11.91,67.50,-67.97,31.78
108507,-0.31,-0.77,-0.24,-19.98,63.57,-71.10,31.87
108517,-0.39,-0.79,-0.27,-23.50,59.40,-60.20,31.97
108527,-0.41,-0.84,-0.29,-27.73,67.01,-40.12,31.87
108537,-0.41,-0.93,-0.19,-29.68,78.69,-18.85,31.78
108547,-0.40,-1.04,-0.08,-25.50,86.82,-3.24,31.87
108557,-0.37,-1.09,0.00,-16.55,91.27,6.18,31.87
108567,-0.36,-1.15,0.06,-6.34,89.11,9.31,32.01
108577,-0.36,-1.19,0.06,6.53,77.94,10.92,31.92
108587,-0.32,-1.16,0.03,18.31,74.18,14.15,31.82
108597,-0.26,-1.12,-0.02,27.27,75.47,16.93,31.92
108607,-0.21,-1.09,-0.07,32.92,80.38,18.78,31.82
108617,-0.19,-1.06,-0.14,34.99,85.82,18.18,31.92
108627,-0.19,-1.02,-0.17,33.18,88.02,15.34,31.87
108637,-0.20,-1.00,-0.19,29.83,90.76,8.89,31.92
108647,-0.24,-0.99,-0.17,23.63,87.13,0.49,31.92
108657,-0.29,-0.97,-0.16,16.60,79.77,-7.88,31.87
108667,-0.33,-0.95,-0.16,11.92,73.50,-11.79,31.97
108677,-0.37,-0.96,-0.14,8.29,70.90,-9.54,31.87
108687,-0.40,-0.97,-0.11,7.33,71.47,-2.61,31.97
108697,-0.41,-0.99,-0.07,10.02,75.11,9.53,31.87
108707,-0.39,-1.02,-0.04,17.31,81.83,21.65,31.97
108717,-0.38,-1.05,-0.00,26.32,88.26,31.13,31.87
108727,-0.36,-1.03,0.02,34.89,92.72,36.96,31.97
108737,-0.34,-1.02,0.01,42.84,92.29,38.23,31.92
108747,-0.34,-0.99,-0.02,47.02,94.44,35.39,31.82
108757,-0.33,-0.97,-0.04,45.28,91.19,29.16,31.92
108767,-0.33,-0.95,-0.08,39.57,86.50,20.70,31.82
108777,-0.31,-0.93,-0.10,31.18,82.34,12.52,31.92
108787,-0.28,-0.91,-0.10,23.19,81.13,2.37,31.92
108797,-0.25,-0.90,-0.13,16.37,82.84,-10.69,31.87
108807,-0.19,-0.88,-0.18,10.95,88.44,-26.26,31.82
108817,-0.16,-0.86,-0.20,4.58,93.07,-44.47,31.87
108827,-0.16,-0.88,-0.17,-1.04,94.17,-64.08,31.87
108837,-0.15,-0.97,-0.12,-9.34,87.22,-85.21,31.97
108847,-0.23,-1.04,-0.06,-17.25,73.15,-97.25,31.97
108857,-0.28,-1.06,-0.03,-15.44,69.39,-93.45,31.97
108867,-0.35,-1.08,0.03,-2.60,88.90,-73.15,31.87
108877,-0.46,-1.06,0.07,15.66,106.14,-45.21,31.78
108887,-0.52,-1.03,0.07,29.02,119.08,-20.61,31.87
108897,-0.55,-0.98,0.05,34.85,114.58,-7.62,31.92
108907,-0.52,-0.95,0.02,33.94,97.05,-2.85,31.92
108917,-0.41,-0.92,-0.06,28.78,79.25,-1.18,31.82
108927,-0.30,-0.91,-0.14,21.53,73.37,0.53,31.92
108937,-0.24,-0.92,-0.14,11.39,73.66,2.60,31.92
108947,-0.23,-0.96,-0.11,1.63,69.15,0.70,31.92
108957,-0.25,-1.00,-0.04,-4.47,62.03,-5.44,31.92
108967,-0.29,-1.04,0.00,-8.85,53.86,-12.37,31.97
108977,-0.32,-1.06,0.02,-8.56,46.24,-15.45,31.92
108987,-0.32,-1.07,0.04,-4.06,44.20,-12.81,31.87
108997,-0.34,-1.06,0.05,2.79,44.03,-6.92,31.97
109007,-0.34,-1.04,0.04,8.73,46.24,-0.60,31.97
109017,-0.37,-1.02,0.03,12.14,44.21,5.13,31.87
109027,-0.41,-0.99,0.03,13.71,40.63,12.18,31.97
109037,-0.43,-0.95,0.01,13.27,38.03,21.11,31.97
109047,-0.43,-0.92,-0.03,10.23,36.52,30.76,31.87
109057,-0.38,-0.94,-0.03,5.85,34.69,37.25,31.87
109067,-0.35,-0.93,-0.04,1.92,30.99,39.13,31.87
109077,-0.32,-0.95,-0.05,-2.11,25.73,38.72,31.92
109087,-0.27,-0.97,-0.04,-6.92,20.18,34.15,31.92
109097,-0.26,-1.01,-0.02,-10.79,14.37,25.76,31.92
109107,-0.24,-1.02,-0.00,-13.54,7.74,17.79,31.92
109117,-0.21,-1.04,0.01,-14.29,3.85,11.63,31.92
109127,-0.22,-1.06,0.01,-11.56,3.68,8.56,31.82
109137,-0.23,-1.09,0.04,-7.05,6.52,8.84,31.87
109147,-0.25,-1.08,0.06,0.09,9.65,10.17,31.92
109157,-0.26,-1.06,0.04,5.50,11.18,10.11,31.87
109167,-0.26,-1.02,0.01,7.45,7.91,7.25,31.87
109177,-0.27,-0.98,-0.03,6.93,2.23,4.18,31.87
109187,-0.25,-0.96,-0.07,4.34,-0.95,4.02,31.87
109197,-0.23,-0.95,-0.11,0.82,0.87,6.55,31.87
109207,-0.21,-0.96,-0.09,-2.82,4.98,10.93,31.97
109217,-0.20,-0.98,-0.06,-4.47,8.64,12.82,31.97
109227,-0.20,-0.99,-0.05,-5.63,8.15,9.97,31.97
109237,-0.19,-0.99,-0.03,-6.38,2.67,3.54,32.06
109247,-0.17,-0.98,-0.05,-7.25,-2.49,-3.25,32.01
109257,-0.17,-0.97,-0.06,-9.50,-5.33,-6.64,31.92
109267,-0.18,-0.98,-0.04,-10.02,-5.88,-5.62,31.92
109277,-0.20,-0.99,-0.03,-8.84,-1.02,-0.63,31.92
109287,-0.21,-1.01,-0.02,-5.74,2.78,4.52,31.92
109297,-0.21,-1.01,-0.02,-3.01,5.05,8.38,31.92
109307,-0.20,-1.01,-0.04,-1.59,4.84,9.16,31.87
109317,-0.18,-1.00,-0.03,-1.71,2.93,7.11,31.82
109327,-0.17,-1.00,-0.05,-2.61,1.80,4.02,31.87
109337,-0.17,-0.99,-0.05,-4.78,-1.39,0.81,31.87
109347,-0.16,-1.00,-0.06,-6.53,-2.17,-0.98,31.87
109357,-0.15,-1.00,-0.05,-6.72,-1.04,-1.51,31.87
109367,-0.15,-1.01,-0.04,-5.69,0.87,-2.50,31.87
109377,-0.15,-1.00,-0.04,-4.46,2.55,-3.91,31.87
