Millis,Acce_X,Acce_Y,Acce_Z,Gyro_X,Gyro_Y,Gyro_Z,Temp
223507,0.08,-1.08,-0.06,-12.96,-37.86,53.13,30.41
223517,0.13,-1.12,-0.04,-14.44,-35.92,45.24,30.37
223527,0.16,-1.14,-0.03,-18.15,-32.87,31.37,30.51
223537,0.15,-1.15,-0.01,-20.43,-34.41,16.02,30.46
223547,0.14,-1.17,0.01,-21.01,-33.31,3.28,30.46
223557,0.12,-1.16,0.03,-19.85,-28.40,-5.89,30.46
223567,0.08,-1.15,0.04,-16.43,-23.80,-10.41,30.37
223577,0.02,-1.13,0.01,-11.28,-18.96,-8.82,30.46
223587,0.01,-1.13,-0.01,-6.06,-11.82,-1.76,30.41
223597,-0.02,-1.13,-0.03,-2.31,-5.15,8.02,30.41
223607,0.00,-1.14,-0.03,1.07,2.64,18.84,30.32
223617,0.03,-1.17,-0.02,5.50,9.76,27.01,30.32
223627,0.07,-1.20,-0.04,8.95,15.65,30.11,30.51
223637,0.12,-1.22,-0.02,10.89,20.26,26.75,30.46
223647,0.15,-1.23,-0.02,11.30,24.00,19.37,30.46
223657,0.16,-1.23,-0.02,10.55,27.53,10.47,30.46
223667,0.17,-1.25,-0.03,10.37,31.77,1.60,30.37
223677,0.16,-1.25,-0.04,11.31,37.50,-5.94,30.37
223687,0.15,-1.25,-0.04,13.40,43.97,-11.36,30.51
223697,0.14,-1.24,-0.07,16.43,51.34,-15.56,30.41
223707,0.12,-1.23,-0.06,17.68,55.86,-19.79,30.51
223717,0.11,-1.21,-0.05,17.50,59.25,-24.53,30.51
223727,0.08,-1.18,-0.04,17.27,60.27,-29.02,30.51
223737,0.07,-1.15,-0.04,16.52,61.54,-32.43,30.37
223747,0.05,-1.12,-0.03,16.76,63.42,-34.11,30.37
223757,0.03,-1.10,-0.02,17.63,64.84,-34.35,30.46
223767,-0.01,-1.09,0.00,17.85,66.41,-33.33,30.46
223777,-0.05,-1.08,0.04,19.50,64.82,-32.52,30.46
223787,-0.08,-1.07,0.09,22.90,61.73,-31.56,30.41
223797,-0.14,-1.09,0.12,26.69,57.51,-30.50,30.51
223807,-0.17,-1.05,0.14,27.08,51.04,-27.65,30.51
223817,-0.22,-1.02,0.19,28.60,40.58,-26.09,30.41
223827,-0.27,-1.00,0.21,28.78,23.53,-25.01,30.46
223837,-0.25,-0.94,0.18,26.35,14.52,-22.03,30.37
223847,-0.21,-0.86,0.14,20.79,22.46,-16.29,30.46
223857,-0.18,-0.84,0.15,15.85,35.50,-11.50,30.46
223867,-0.20,-0.86,0.19,10.24,36.44,-9.40,30.37
223877,-0.19,-0.85,0.17,2.03,33.22,-9.57,30.37
223887,-0.16,-0.86,0.14,-4.72,24.81,-8.50,30.51
223897,-0.13,-0.87,0.09,-8.29,20.29,-6.05,30.41
223907,-0.11,-0.91,0.09,-12.79,22.35,-2.49,30.51
223917,-0.10,-0.93,0.10,-16.53,25.69,0.98,30.46
223927,-0.10,-0.96,0.12,-17.36,26.81,3.21,30.51
223937,-0.08,-0.99,0.15,-15.15,24.23,4.60,30.46
223947,-0.04,-1.03,0.16,-10.50,23.73,5.08,30.46
223957,-0.00,-1.05,0.17,-4.76,27.68,4.09,30.55
223967,-0.01,-1.07,0.19,-1.56,31.82,1.34,30.46
223977,-0.03,-1.08,0.20,2.03,33.11,-1.68,30.37
223987,-0.06,-1.09,0.20,4.46,32.60,-4.58,30.51
223997,-0.04,-1.07,0.19,7.07,34.66,-6.69,30.41
224007,-0.03,-1.06,0.16,9.11,36.15,-8.18,30.41
224017,-0.01,-1.05,0.11,11.45,38.40,-7.89,30.41
224027,0.00,-1.04,0.08,12.87,41.45,-7.37,30.51
224037,0.01,-1.05,0.06,13.68,42.79,-6.95,30.51
224047,0.01,-1.03,0.07,12.76,44.63,-6.85,30.55
224057,0.01,-1.02,0.06,11.56,46.49,-6.37,30.46
224067,-0.00,-1.03,0.06,10.84,48.53,-6.14,30.46
224077,0.01,-1.03,0.08,9.77,50.78,-6.17,30.46
224087,0.02,-1.03,0.09,9.45,52.89,-7.05,30.41
224097,0.01,-1.03,0.11,8.75,54.92,-8.76,30.41
224107,0.01,-1.01,0.11,8.67,56.26,-10.52,30.32
224117,-0.01,-1.01,0.11,8.73,55.33,-11.34,30.41
224127,-0.01,-0.99,0.08,8.49,56.21,-10.00,30.51
224137,-0.01,-0.97,0.08,6.23,58.11,-8.61,30.46
224147,-0.03,-0.96,0.08,3.08,59.22,-6.81,30.46
224157,-0.03,-0.95,0.09,0.76,61.40,-6.17,30.46
224167,-0.03,-0.97,0.10,-1.24,62.99,-6.75,30.46
224177,-0.04,-0.97,0.13,0.29,66.61,-9.16,30.46
224187,0.09,-1.01,0.07,-0.09,64.18,-8.26,30.37
224197,-0.20,-1.01,0.23,-0.44,55.25,-17.16,30.41
224207,-0.12,-0.92,0.14,-4.75,52.75,-20.15,30.51
224217,-0.10,-0.95,0.15,-4.78,56.06,-21.36,30.41
224227,-0.14,-0.96,0.27,-1.69,61.59,-21.40,30.41
224237,-0.12,-0.95,0.27,-0.81,64.52,-24.78,30.41
224247,-0.18,-0.95,0.26,0.95,54.20,-26.95,30.41
224257,-0.18,-0.96,0.27,0.76,51.42,-26.06,30.46
224267,-0.19,-0.97,0.32,1.44,47.24,-26.47,30.46
224277,-0.17,-0.97,0.30,3.13,43.30,-26.90,30.46
224287,-0.18,-0.94,0.28,2.27,43.39,-26.12,30.37
224297,-0.16,-0.90,0.24,0.98,37.08,-24.05,30.46
224307,-0.11,-0.85,0.15,-2.26,40.56,-19.44,30.46
224317,-0.11,-0.83,0.10,-7.25,41.42,-13.39,30.41
224327,-0.11,-0.83,0.05,-15.04,42.99,-7.71,30.41
224337,-0.10,-0.86,0.04,-23.88,41.98,-3.68,30.41
224347,-0.09,-0.90,0.03,-31.21,41.66,-0.73,30.41
224357,-0.04,-0.95,0.08,-35.56,45.27,1.83,30.46
224367,-0.01,-0.98,0.12,-35.80,50.09,2.43,30.51
224377,0.02,-1.02,0.15,-32.78,52.98,1.25,30.37
224387,0.03,-1.03,0.14,-24.76,55.37,-1.91,30.46
224397,0.04,-1.04,0.13,-16.08,60.08,-4.53,30.37
224407,0.03,-1.03,0.10,-8.58,61.62,-5.25,30.46
224417,-0.01,-1.01,0.04,-5.80,66.12,-4.81,30.46
224427,-0.04,-1.00,0.00,-6.34,71.37,-2.38,30.41
224437,-0.05,-1.01,-0.00,-8.79,74.89,1.50,30.41
224447,-0.07,-1.01,0.02,-11.76,77.65,2.92,30.32
224457,-0.06,-1.02,0.04,-12.21,78.40,2.67,30.51
224467,-0.07,-1.06,0.07,-11.13,76.46,1.68,30.41
224477,-0.05,-1.07,0.08,-9.05,77.50,-0.99,30.55
224487,-0.04,-1.10,0.09,-4.98,78.73,-4.64,30.46
224497,-0.02,-1.11,0.09,-0.67,80.98,-9.28,30.46
224507,-0.01,-1.14,0.09,4.52,84.41,-14.41,30.55
224517,-0.02,-1.11,0.07,9.45,87.28,-19.40,30.37
224527,-0.04,-1.07,0.04,11.13,92.09,-23.89,30.41
224537,-0.08,-1.04,0.07,10.08,95.79,-26.53,30.51
224547,-0.10,-1.00,0.09,7.56,96.21,-28.02,30.41
224557,-0.14,-0.98,0.11,5.04,100.61,-27.80,30.51
224567,-0.18,-0.98,0.19,5.59,100.70,-25.40,30.51
224577,-0.19,-0.99,0.24,10.76,103.42,-21.15,30.46
224587,-0.20,-1.01,0.27,19.33,104.82,-15.13,30.46
224597,-0.19,-1.00,0.25,28.18,105.74,-9.21,30.55
224607,-0.18,-0.98,0.17,33.10,103.44,-3.31,30.46
224617,-0.17,-0.96,0.12,33.56,97.85,1.68,30.37
224627,-0.13,-0.92,0.06,29.79,94.72,6.09,30.37
224637,-0.11,-0.89,0.00,23.47,90.72,9.25,30.46
224647,-0.10,-0.88,-0.01,15.33,85.82,12.18,30.51
224657,-0.06,-0.90,-0.01,8.14,80.76,13.97,30.41
224667,-0.05,-0.94,0.00,1.48,76.18,14.61,30.51
224677,-0.04,-0.99,0.04,-3.60,74.95,15.68,30.51
224687,-0.03,-1.04,0.08,-5.59,75.91,14.92,30.41
224697,-0.02,-1.08,0.11,-5.76,76.26,12.02,30.46
224707,-0.03,-1.10,0.13,-5.65,74.52,7.10,30.46
224717,-0.05,-1.10,0.13,-6.63,72.99,2.53,30.37
224727,-0.07,-1.09,0.12,-8.46,71.22,-0.35,30.55
224737,-0.09,-1.12,0.15,-9.85,68.96,-1.31,30.46
224747,-0.09,-1.16,0.18,-9.40,68.21,-3.13,30.51
224757,-0.08,-1.17,0.20,-6.81,68.81,-4.76,30.51
224767,-0.09,-1.17,0.19,-1.74,69.36,-5.37,30.41
224777,-0.07,-1.16,0.16,3.07,72.60,-4.46,30.41
224787,-0.07,-1.13,0.16,7.80,72.43,-3.21,30.51
224797,-0.06,-1.11,0.13,11.10,73.02,-3.02,30.46
224807,-0.04,-1.10,0.11,11.69,72.63,-4.61,30.37
224817,-0.05,-1.06,0.08,9.68,70.55,-6.58,30.55
224827,-0.07,-1.05,0.07,6.18,68.93,-7.24,30.46
224837,-0.06,-1.05,0.07,3.48,68.11,-7.56,30.55
224847,-0.06,-1.06,0.07,-0.46,67.48,-8.70,30.51
224857,-0.04,-1.08,0.09,-3.77,66.47,-11.39,30.51
224867,-0.01,-1.09,0.11,-5.91,67.40,-15.39,30.41
224877,-0.00,-1.09,0.12,-5.76,68.79,-19.28,30.41
224887,0.00,-1.08,0.11,-3.69,71.10,-22.47,30.46
224897,-0.02,-1.03,0.10,-0.18,70.23,-23.71,30.37
224907,-0.05,-1.01,0.09,2.55,70.03,-22.67,30.46
224917,-0.09,-0.96,0.05,2.56,68.17,-19.10,30.37
224927,-0.12,-0.93,0.03,-2.50,65.62,-14.96,30.46
224937,-0.13,-0.91,0.03,-10.46,65.25,-12.89,30.46
224947,-0.12,-0.93,0.04,-17.33,62.09,-14.09,30.51
224957,-0.12,-0.97,0.10,-23.77,56.98,-18.92,30.51
224967,-0.06,-0.98,0.13,-25.91,59.01,-25.22,30.41
224977,-0.13,-0.97,0.13,-29.48,48.20,-28.02,30.41
224987,-0.08,-0.98,0.11,-28.11,61.45,-27.24,30.51
224997,-0.11,-1.00,0.13,-23.77,64.53,-28.09,30.41
225007,-0.07,-1.02,0.09,-19.91,51.02,-23.48,30.46
225017,-0.01,-1.04,0.11,-13.86,57.50,-19.24,30.46
225027,-0.05,-1.02,0.11,-7.36,65.31,-13.27,30.37
225037,-0.07,-1.03,0.08,-5.36,72.55,-7.79,30.46
225047,-0.09,-1.02,0.08,-5.53,68.66,-3.34,30.46
225057,-0.12,-0.99,0.07,-6.95,61.05,1.63,30.51
225067,-0.11,-1.01,0.09,-9.95,59.11,6.32,30.51
225077,-0.07,-1.03,0.11,-10.44,63.63,9.89,30.41
225087,-0.06,-1.05,0.11,-8.55,63.83,11.65,30.41
225097,-0.02,-1.06,0.10,-6.32,62.93,10.26,30.41
225107,0.01,-1.06,0.12,-3.66,61.25,6.47,30.46
225117,0.03,-1.05,0.08,-2.27,60.64,1.73,30.46
225127,0.03,-1.02,0.04,-4.09,61.73,-0.31,30.55
225137,0.02,-1.00,0.02,-6.26,62.08,-1.15,30.46
225147,0.03,-1.01,0.03,-7.79,63.07,-2.26,30.37
225157,0.03,-1.00,0.05,-8.20,63.13,-3.80,30.37
225167,0.03,-0.99,0.03,-7.97,63.66,-3.92,30.41
225177,0.03,-0.98,0.04,-7.95,65.02,-2.99,30.41
225187,0.03,-1.00,0.04,-7.30,66.15,-2.40,30.51
225197,0.04,-1.00,0.05,-6.58,68.27,-2.66,30.46
225207,0.04,-1.02,0.06,-4.78,70.08,-2.98,30.41
225217,0.07,-1.05,0.06,-3.13,73.10,-4.76,30.37
225227,0.07,-1.06,0.05,-1.27,75.79,-8.49,30.46
225237,0.06,-1.05,0.04,-1.86,75.40,-13.69,30.46
225247,0.04,-1.05,0.03,-5.50,73.45,-19.21,30.37
225257,-0.01,-1.04,0.02,-8.92,69.33,-26.43,30.46
225267,-0.05,-1.03,0.03,-12.58,66.40,-32.63,30.41
225277,-0.11,-1.00,0.03,-14.99,62.32,-36.21,30.41
225287,-0.14,-0.98,0.04,-17.54,60.14,-36.72,30.41
225297,-0.18,-0.98,0.04,-18.26,56.43,-36.76,30.41
225307,-0.17,-0.99,0.05,-19.16,55.31,-36.84,30.51
225317,-0.18,-0.98,0.06,-18.26,50.53,-38.84,30.46
225327,-0.18,-0.96,0.06,-18.26,46.09,-40.70,30.37
225337,-0.20,-0.94,0.06,-17.65,40.55,-41.42,30.46
225347,-0.21,-0.93,0.05,-18.02,38.26,-40.99,30.37
225357,-0.17,-0.93,0.05,-18.66,39.50,-38.78,30.46
225367,-0.17,-0.94,0.04,-19.01,39.82,-35.73,30.46
225377,-0.17,-0.95,0.04,-18.00,36.93,-32.66,30.41
225387,-0.14,-0.98,0.03,-18.52,33.51,-28.70,30.41
225397,-0.13,-1.00,0.04,-20.49,31.31,-24.24,30.41
225407,-0.10,-1.01,0.04,-20.84,30.60,-19.04,30.41
225417,-0.05,-1.04,0.06,-18.03,31.62,-14.56,30.37
225427,0.01,-1.06,0.04,-14.60,34.31,-13.56,30.46
225437,0.07,-1.09,0.04,-11.95,33.05,-15.86,30.46
225447,0.11,-1.09,0.04,-8.02,32.14,-21.63,30.46
225457,0.14,-1.06,-0.00,-6.15,29.98,-27.98,30.46
225467,0.11,-1.03,-0.05,-7.69,26.12,-31.07,30.46
225477,0.14,-1.01,-0.08,-11.39,26.41,-31.22,30.51
225487,0.15,-1.00,-0.10,-17.39,25.97,-29.16,30.51
225497,0.16,-0.99,-0.11,-23.89,25.66,-27.15,30.51
225507,0.18,-1.00,-0.09,-28.37,25.56,-24.34,30.51
225517,0.17,-1.01,-0.08,-30.24,25.25,-21.73,30.41
225527,0.17,-1.02,-0.07,-31.66,27.39,-15.85,30.41
225537,0.20,-1.04,-0.03,-30.44,29.88,-10.75,30.46
225547,0.22,-1.04,-0.04,-30.46,33.33,-9.24,30.37
225557,0.21,-1.01,-0.05,-33.62,34.02,-11.40,30.46
225567,0.20,-1.00,-0.06,-38.89,33.40,-16.56,30.37
225577,0.19,-1.01,-0.06,-42.96,30.49,-21.15,30.37
225587,0.15,-1.03,-0.07,-45.33,29.98,-23.39,30.51
225597,0.12,-1.05,-0.05,-46.08,29.63,-24.56,30.41
225607,0.10,-1.07,-0.05,-47.01,30.40,-22.29,30.41
225617,0.11,-1.10,-0.03,-47.19,32.64,-18.38,30.51
225627,0.11,-1.13,0.04,-44.69,36.60,-17.22,30.51
225637,0.11,-1.15,0.07,-37.63,38.55,-17.65,30.46
225647,0.12,-1.14,0.03,-29.76,36.79,-18.60,30.46
225657,0.08,-1.10,-0.03,-25.24,35.77,-18.43,30.46
225667,0.07,-1.07,-0.06,-24.69,33.48,-17.24,30.46
225677,0.06,-1.06,-0.07,-28.06,30.89,-19.74,30.46
225687,0.05,-1.08,-0.04,-32.82,25.80,-25.42,30.46
225697,0.06,-1.07,-0.01,-34.37,21.24,-30.02,30.41
225707,0.04,-1.09,0.02,-31.92,16.87,-31.19,30.51
225717,0.02,-1.08,0.02,-28.23,13.68,-27.48,30.41
225727,0.07,-1.05,0.01,-24.75,12.46,-19.16,30.51
225737,0.09,-1.04,-0.03,-19.48,17.45,-11.04,30.60
225747,0.13,-1.01,-0.06,-16.82,20.60,-1.36,30.51
225757,0.17,-1.01,-0.07,-15.71,20.02,4.47,30.55
225767,0.25,-0.99,-0.09,-16.03,23.02,6.11,30.37
225777,0.33,-0.99,-0.10,-19.18,23.15,1.07,30.46
225787,0.36,-0.98,-0.09,-24.89,20.75,-13.15,30.37
225797,0.37,-0.96,-0.08,-31.48,14.11,-30.38,30.46
225807,0.41,-0.95,-0.11,-33.82,8.05,-42.09,30.41
225817,0.39,-0.96,-0.14,-34.31,10.37,-46.09,30.41
225827,0.32,-0.97,-0.12,-33.66,14.24,-37.73,30.41
225837,0.29,-0.98,-0.10,-30.89,20.52,-22.26,30.51
225847,0.28,-1.03,-0.07,-28.12,30.61,-8.05,30.41
225857,0.28,-1.10,-0.02,-23.59,34.99,0.08,30.37
225867,0.28,-1.16,-0.02,-18.99,36.37,-1.16,30.37
225877,0.30,-1.19,0.01,-16.72,33.73,-11.63,30.46
225887,0.31,-1.20,0.02,-15.97,30.17,-27.94,30.46
225897,0.33,-1.16,-0.02,-15.76,25.62,-42.31,30.46
225907,0.30,-1.10,-0.06,-14.95,22.08,-51.28,30.51
225917,0.23,-1.05,-0.07,-14.69,20.87,-52.67,30.51
225927,0.15,-1.03,-0.07,-14.31,23.05,-45.59,30.51
225937,0.07,-1.01,-0.03,-12.03,24.99,-32.73,30.41
225947,-0.01,-1.03,0.03,-7.51,23.57,-19.24,30.46
225957,0.03,-1.03,0.04,-4.18,26.43,-8.24,30.55
225967,0.04,-1.07,0.06,0.44,23.82,-3.16,30.46
225977,0.07,-1.13,0.05,5.82,23.27,-3.73,30.46
225987,0.08,-1.10,0.05,10.11,17.13,-5.40,30.37
225997,0.11,-1.08,0.02,11.94,13.24,-9.37,30.46
226007,0.11,-1.06,-0.02,12.60,9.92,-12.87,30.51
226017,0.10,-1.04,-0.03,10.75,5.48,-13.31,30.41
226027,0.10,-1.01,-0.07,8.87,0.73,-10.02,30.51
226037,0.13,-1.01,-0.06,7.28,0.56,-3.68,30.46
226047,0.14,-1.02,-0.04,8.24,0.12,4.66,30.51
226057,0.19,-1.04,-0.01,10.61,0.89,10.52,30.37
226067,0.26,-1.07,0.00,14.50,1.39,11.34,30.46
226077,0.29,-1.10,0.00,19.07,-1.10,8.35,30.46
226087,0.32,-1.08,-0.01,22.46,-2.67,2.66,30.46
226097,0.32,-1.04,-0.04,23.92,-6.00,-0.72,30.46
226107,0.32,-0.99,-0.09,23.07,-5.91,-0.76,30.37
226117,0.33,-0.93,-0.14,20.32,-2.93,1.88,30.51
226127,0.32,-0.91,-0.15,15.15,-0.89,4.96,30.51
226137,0.31,-0.92,-0.16,8.31,-2.06,6.81,30.41
226147,0.30,-0.94,-0.12,1.21,-4.44,6.95,30.51
226157,0.27,-0.99,-0.06,-3.11,-7.04,5.79,30.41
226167,0.27,-1.04,-0.00,-2.81,-8.70,6.24,30.46
226177,0.27,-1.05,0.00,0.96,-6.76,6.84,30.46
226187,0.26,-1.08,0.02,5.97,-4.95,5.59,30.46
226197,0.22,-1.07,0.05,10.02,-5.80,1.91,30.55
226207,0.19,-1.06,0.02,11.05,-9.74,-2.50,30.46
226217,0.13,-1.04,0.00,11.53,-16.46,-5.30,30.46
226227,0.10,-1.02,-0.02,9.86,-20.70,-6.58,30.41
226237,0.06,-1.02,-0.01,6.85,-24.69,-5.39,30.51
226247,0.07,-1.04,0.00,4.44,-27.13,-1.94,30.51
226257,0.06,-1.05,0.03,5.86,-28.93,3.83,30.51
226267,0.07,-1.05,0.03,9.34,-28.35,10.72,30.41
226277,0.11,-1.04,0.04,12.29,-27.18,16.12,30.41
226287,0.12,-1.02,0.03,15.10,-28.26,19.44,30.46
226297,0.13,-1.01,0.01,17.19,-30.14,19.50,30.55
226307,0.12,-1.00,-0.02,16.02,-33.66,16.89,30.37
226317,0.12,-1.01,-0.02,12.44,-41.02,12.12,30.46
226327,0.10,-1.01,-0.02,8.84,-47.01,8.49,30.46
226337,0.09,-1.02,-0.02,6.92,-49.79,7.98,30.46
226347,0.12,-1.05,0.01,6.73,-50.49,9.25,30.51
226357,0.15,-1.06,0.03,10.60,-49.36,11.30,30.41
226367,0.15,-1.04,0.01,15.50,-48.29,13.37,30.51
226377,0.13,-1.00,-0.03,17.68,-49.31,15.39,30.41
226387,0.11,-0.96,-0.08,15.45,-54.03,17.11,30.37
226397,0.09,-0.94,-0.11,9.10,-59.39,19.04,30.46
226407,0.06,-0.94,-0.10,1.89,-62.58,19.04,30.46
226417,0.05,-0.95,-0.08,-4.44,-66.95,18.27,30.46
226427,0.06,-1.00,-0.02,-7.57,-70.37,16.32,30.46
226437,0.08,-1.03,0.03,-3.65,-71.94,13.37,30.37
226447,0.10,-1.07,0.04,2.67,-72.99,10.60,30.46
226457,0.15,-1.09,0.05,10.26,-72.67,8.20,30.41
226467,0.22,-1.09,0.02,18.64,-68.41,6.92,30.41
226477,0.24,-1.08,-0.00,26.32,-65.60,6.14,30.51
226487,0.25,-1.05,-0.06,31.28,-62.70,6.37,30.41
226497,0.21,-1.00,-0.12,31.83,-63.05,8.78,30.41
226507,0.19,-0.95,-0.17,26.35,-62.31,13.53,30.46
226517,0.13,-0.93,-0.17,18.00,-67.27,18.35,30.46
226527,0.12,-0.96,-0.15,7.40,-69.79,20.32,30.37
226537,0.16,-1.00,-0.09,-0.93,-69.88,18.24,30.46
226547,0.16,-1.02,-0.04,-2.03,-69.79,12.81,30.55
226557,0.19,-1.07,-0.01,0.35,-71.02,7.02,30.41
226567,0.25,-1.12,0.03,7.60,-70.17,1.28,30.41
226577,0.28,-1.13,0.04,20.23,-64.34,-2.92,30.41
226587,0.27,-1.11,-0.00,29.86,-60.76,-5.11,30.51
226597,0.24,-1.07,-0.09,32.66,-60.12,-5.97,30.41
226607,0.19,-1.00,-0.17,29.80,-59.53,-5.59,30.37
226617,0.13,-0.99,-0.19,23.47,-63.66,-2.17,30.55
226627,0.10,-0.98,-0.20,13.80,-67.53,3.28,30.46
226637,0.10,-1.00,-0.17,4.98,-71.01,7.92,30.46
226647,0.10,-1.05,-0.12,0.21,-73.28,10.00,30.46
226657,0.13,-1.10,-0.05,-1.33,-74.00,8.23,30.51
226667,0.17,-1.17,0.02,0.82,-74.17,1.53,30.41
226677,0.20,-1.19,0.05,7.88,-74.00,-7.60,30.41
226687,0.17,-1.15,0.03,18.78,-73.48,-15.34,30.41
226697,0.11,-1.10,-0.06,23.40,-73.39,-16.82,30.27
226707,0.07,-1.02,-0.14,21.21,-76.52,-14.21,30.41
226717,0.05,-0.98,-0.16,14.06,-78.09,-9.13,30.46
226727,0.01,-0.98,-0.12,6.52,-82.75,-5.37,30.46
226737,0.05,-1.00,-0.11,2.15,-82.84,-2.58,30.37
226747,0.08,-1.02,-0.10,2.87,-85.74,-0.63,30.46
226757,0.11,-1.05,-0.06,6.84,-85.13,2.41,30.37
226767,0.14,-1.07,-0.04,13.39,-82.56,3.69,30.41
226777,0.14,-1.06,-0.06,18.96,-80.02,4.58,30.41
226787,0.12,-1.04,-0.09,21.71,-79.51,5.63,30.32
226797,0.11,-1.01,-0.14,20.76,-80.72,7.05,30.41
226807,0.11,-1.00,-0.14,17.50,-82.23,7.88,30.41
226817,0.12,-0.99,-0.15,14.06,-82.40,7.89,30.41
226827,0.12,-1.02,-0.13,12.06,-83.10,7.11,30.37
226837,0.13,-1.03,-0.08,13.07,-85.40,5.97,30.37
226847,0.14,-1.03,-0.09,17.69,-83.25,4.70,30.46
226857,0.13,-1.02,-0.11,21.54,-82.92,4.26,30.37
226867,0.11,-1.02,-0.12,22.92,-84.37,3.68,30.46
226877,0.13,-1.02,-0.13,21.62,-84.84,3.50,30.41
226887,0.14,-1.06,-0.11,19.53,-85.57,0.06,30.41
226897,0.13,-1.07,-0.09,19.97,-85.28,-4.85,30.41
226907,0.10,-1.07,-0.11,20.37,-86.38,-8.89,30.41
226917,0.07,-1.02,-0.14,20.12,-89.69,-10.87,30.46
226927,0.06,-1.02,-0.15,18.72,-92.09,-9.24,30.41
226937,0.08,-1.02,-0.13,17.04,-91.54,-6.63,30.46
226947,0.11,-1.04,-0.13,16.76,-88.38,-5.68,30.46
226957,0.14,-1.07,-0.09,17.63,-86.47,-7.76,30.37
226967,0.15,-1.05,-0.08,19.40,-87.86,-12.67,30.46
226977,0.15,-1.01,-0.15,20.20,-88.38,-17.22,30.37
226987,0.15,-0.98,-0.20,16.81,-90.08,-18.95,30.41
226997,0.15,-0.96,-0.21,9.65,-91.37,-19.48,30.41
227007,0.15,-0.96,-0.18,1.85,-93.59,-21.88,30.32
227017,0.16,-0.98,-0.15,-3.04,-95.57,-25.34,30.41
227027,0.18,-1.01,-0.09,-2.31,-97.42,-28.89,30.41
227037,0.20,-1.02,-0.08,4.17,-94.93,-29.65,30.46
227047,0.19,-1.01,-0.09,12.15,-90.35,-26.09,30.46
227057,0.16,-0.98,-0.13,17.47,-84.99,-18.56,30.37
227067,0.17,-0.95,-0.19,17.57,-81.10,-9.98,30.46
227077,0.17,-0.94,-0.18,13.16,-78.87,-4.89,30.46
227087,0.18,-0.94,-0.18,6.06,-80.02,-4.47,30.41
227097,0.18,-0.95,-0.18,-0.38,-84.44,-6.87,30.41
227107,0.20,-0.97,-0.16,-4.55,-88.31,-9.59,30.41
227117,0.24,-0.99,-0.14,-6.63,-88.87,-12.73,30.41
227127,0.27,-1.00,-0.14,-6.64,-85.34,-16.02,30.41
227137,0.26,-1.03,-0.09,-5.15,-82.93,-18.46,30.37
227147,0.25,-1.04,-0.10,-3.10,-80.70,-19.39,30.37
227157,0.22,-1.03,-0.12,-1.83,-80.55,-18.49,30.46
227167,0.22,-1.02,-0.11,-0.55,-76.58,-16.17,30.46
227177,0.21,-1.00,-0.13,-0.93,-75.65,-14.00,30.46
227187,0.20,-0.99,-0.14,-2.38,-76.85,-11.83,30.46
227197,0.18,-0.98,-0.14,-3.42,-76.53,-8.69,30.41
227207,0.19,-1.01,-0.14,-4.27,-75.53,-3.19,30.41
227217,0.20,-1.01,-0.13,-3.48,-74.82,2.38,30.51
227227,0.21,-1.02,-0.12,-3.08,-70.73,6.95,30.41
227237,0.25,-1.05,-0.10,-2.34,-67.71,7.77,30.60
227247,0.27,-1.07,-0.09,-0.85,-65.98,5.36,30.41
227257,0.27,-1.07,-0.09,1.02,-66.32,2.21,30.37
227267,0.27,-1.06,-0.12,2.49,-65.79,-0.82,30.46
227277,0.25,-1.05,-0.13,1.94,-64.98,-2.85,30.46
227287,0.22,-1.04,-0.12,0.85,-66.02,-3.05,30.37
227297,0.23,-1.03,-0.15,-0.02,-65.30,-1.65,30.37
227307,0.23,-1.02,-0.14,-0.56,-63.44,-0.09,30.41
227317,0.24,-1.01,-0.15,-1.62,-61.80,1.24,30.51
227327,0.25,-1.00,-0.16,-2.63,-60.55,2.32,30.41
227337,0.24,-0.98,-0.18,-4.44,-60.14,3.79,30.41
227347,0.22,-0.98,-0.18,-7.07,-60.15,6.41,30.32
227357,0.24,-0.98,-0.19,-10.12,-59.44,9.53,30.46
227367,0.21,-0.97,-0.18,-12.84,-58.81,12.70,30.37
227377,0.20,-0.97,-0.19,-16.93,-57.59,15.76,30.37
227387,0.20,-0.99,-0.18,-21.30,-59.63,17.97,30.37
227397,0.21,-0.99,-0.16,-25.10,-60.81,17.73,30.46
227407,0.20,-1.02,-0.11,-26.46,-60.78,16.15,30.32
227417,0.23,-1.05,-0.07,-24.67,-59.73,13.74,30.32
227427,0.26,-1.09,-0.01,-20.05,-57.47,9.63,30.41
227437,0.25,-1.11,0.03,-11.31,-55.39,3.51,30.51
227447,0.22,-1.10,0.03,-2.08,-53.73,-0.96,30.37
227457,0.18,-1.06,0.01,5.54,-52.61,-2.89,30.46
227467,0.16,-1.03,-0.02,11.27,-50.98,-1.95,30.46
227477,0.14,-0.99,-0.08,14.26,-48.87,0.96,30.37
227487,0.13,-0.96,-0.10,13.39,-47.66,3.53,30.37
227497,0.12,-0.94,-0.12,10.56,-47.98,5.33,30.37
227507,0.11,-0.93,-0.12,6.40,-52.35,5.65,30.32
227517,0.13,-0.92,-0.14,1.80,-54.98,5.56,30.41
227527,0.14,-0.91,-0.15,-1.42,-55.89,6.35,30.41
227537,0.16,-0.91,-0.14,-4.27,-55.36,7.71,30.37
227547,0.15,-0.91,-0.15,-6.98,-55.82,8.63,30.41
227557,0.15,-0.94,-0.14,-9.63,-56.69,10.40,30.37
227567,0.19,-0.95,-0.12,-10.84,-56.47,11.21,30.37
227577,0.20,-0.95,-0.13,-9.86,-54.38,11.66,30.46
227587,0.22,-0.94,-0.13,-8.64,-51.05,11.02,30.37
227597,0.20,-0.92,-0.14,-7.15,-51.42,10.58,30.46
227607,0.20,-0.90,-0.17,-5.36,-49.92,11.89,30.41
227617,0.20,-0.88,-0.18,-4.78,-46.72,14.85,30.41
227627,0.19,-0.86,-0.19,-4.63,-42.67,19.10,30.41
227637,0.21,-0.87,-0.21,-5.48,-37.28,22.37,30.41
227647,0.19,-0.90,-0.20,-8.49,-33.98,23.22,30.46
227657,0.16,-0.94,-0.17,-12.87,-35.60,22.58,30.46
227667,0.16,-1.02,-0.11,-16.09,-37.01,22.12,30.37
227677,0.17,-1.09,-0.07,-14.20,-35.34,21.13,30.37
227687,0.16,-1.11,-0.05,-8.24,-29.97,20.89,30.37
227697,0.15,-1.11,-0.06,-0.85,-25.44,21.34,30.32
227707,0.13,-1.12,-0.11,3.02,-25.02,21.19,30.51
227717,0.11,-1.08,-0.13,2.12,-27.54,19.10,30.41
227727,0.11,-1.06,-0.15,-1.25,-30.78,16.46,30.51
227737,0.12,-1.05,-0.15,-5.57,-31.42,13.13,30.41
227747,0.11,-1.06,-0.15,-8.46,-31.95,9.16,30.46
227757,0.10,-1.07,-0.14,-9.88,-35.24,5.18,30.46
227767,0.11,-1.06,-0.12,-11.16,-37.56,2.09,30.46
227777,0.10,-1.08,-0.11,-11.53,-38.43,-0.37,30.46
227787,0.10,-1.08,-0.10,-11.82,-39.60,-2.26,30.46
227797,0.08,-1.07,-0.09,-10.82,-40.56,-3.47,30.41
227807,0.09,-1.09,-0.08,-8.56,-39.71,-4.46,30.41
227817,0.08,-1.07,-0.07,-5.25,-38.96,-4.72,30.41
227827,0.07,-1.07,-0.08,-2.00,-39.31,-4.34,30.41
227837,0.07,-1.06,-0.11,-0.05,-38.92,-3.16,30.41
227847,0.07,-1.06,-0.12,1.04,-38.90,-2.89,30.46
227857,0.08,-1.05,-0.12,1.21,-39.63,-2.15,30.37
227867,0.08,-1.03,-0.14,1.10,-39.98,-1.36,30.46
227877,0.11,-1.01,-0.16,1.48,-38.95,0.47,30.46
227887,0.13,-0.99,-0.17,1.34,-37.66,1.80,30.37
227897,0.16,-0.98,-0.19,-0.02,-35.85,2.49,30.41
227907,0.18,-0.99,-0.20,-1.45,-33.92,1.60,30.51
227917,0.21,-1.02,-0.19,-3.62,-32.73,-1.82,30.51
227927,0.22,-1.05,-0.16,-3.65,-30.67,-6.56,30.32
227937,0.23,-1.08,-0.16,-2.53,-28.50,-12.15,30.46
227947,0.23,-1.09,-0.16,-1.76,-27.11,-17.59,30.41
227957,0.22,-1.05,-0.14,-1.53,-26.82,-21.60,30.46
227967,0.21,-1.04,-0.16,-0.35,-26.05,-22.98,30.46
227977,0.20,-0.97,-0.19,0.66,-22.43,-20.40,30.46
227987,0.19,-0.95,-0.19,-0.37,-18.17,-15.59,30.46
227997,0.20,-0.95,-0.21,-2.55,-15.76,-11.54,30.37
228007,0.22,-0.97,-0.20,-5.27,-13.27,-9.22,30.46
228017,0.23,-0.99,-0.15,-7.42,-14.14,-10.23,30.41
228027,0.23,-1.01,-0.15,-7.42,-13.37,-10.79,30.51
228037,0.25,-1.04,-0.13,-5.16,-10.50,-9.80,30.32
228047,0.27,-1.05,-0.15,-1.40,-5.01,-8.72,30.41
228057,0.27,-1.03,-0.15,-0.06,0.08,-8.53,30.41
228067,0.27,-1.02,-0.14,-0.12,2.35,-8.98,30.37
228077,0.26,-0.99,-0.16,-0.12,3.92,-9.02,30.46
228087,0.26,-1.00,-0.18,-0.50,6.60,-9.07,30.55
228097,0.23,-1.00,-0.16,-2.98,7.85,-10.60,30.46
228107,0.21,-0.99,-0.15,-5.22,7.91,-12.46,30.46
228117,0.20,-0.97,-0.14,-6.52,9.24,-12.76,30.37
228127,0.15,-0.94,-0.14,-6.84,9.45,-9.21,30.32
228137,0.12,-0.93,-0.15,-5.68,12.41,0.52,30.41
228147,0.12,-0.96,-0.17,-3.47,15.63,14.53,30.41
228157,0.14,-1.00,-0.17,-1.15,21.07,27.92,30.37
228167,0.18,-1.06,-0.14,2.44,27.36,38.64,30.32
228177,0.25,-1.11,-0.15,7.01,36.40,42.82,30.41
228187,0.32,-1.13,-0.12,7.86,42.26,36.37,30.37
228197,0.33,-1.12,-0.10,6.23,44.87,19.71,30.37
228207,0.31,-1.10,-0.11,1.28,41.37,-2.67,30.46
228217,0.23,-1.10,-0.11,-3.01,32.27,-24.06,30.46
228227,0.16,-1.05,-0.11,-5.97,27.25,-37.11,30.46
228237,0.10,-1.00,-0.12,-7.53,28.17,-39.82,30.41
228247,0.07,-0.97,-0.11,-7.40,30.81,-34.23,30.32
228257,0.05,-0.95,-0.09,-4.75,33.33,-25.37,30.41
228267,0.03,-0.93,-0.08,-2.60,34.63,-16.72,30.51
228277,0.04,-0.93,-0.09,-1.33,32.96,-9.19,30.41
228287,0.04,-0.96,-0.09,-2.84,31.50,-6.32,30.46
228297,0.03,-0.99,-0.05,-7.59,23.80,-8.02,30.37
228307,0.05,-1.03,-0.02,-9.59,17.63,-11.40,30.46
228317,0.07,-1.08,-0.03,-8.75,15.74,-13.80,30.37
228327,0.07,-1.10,-0.01,-8.06,13.36,-15.02,30.46
228337,0.09,-1.09,0.00,-6.76,12.05,-15.91,30.37
228347,0.11,-1.08,0.00,-5.21,10.26,-16.85,30.41
228357,0.12,-1.08,-0.01,-2.89,7.83,-16.47,30.41
228367,0.12,-1.08,-0.04,0.64,6.75,-14.87,30.41
228377,0.12,-1.06,-0.08,2.37,8.21,-11.69,30.37
228387,0.14,-1.04,-0.09,2.15,9.21,-9.34,30.41
228397,0.15,-1.02,-0.09,0.29,8.24,-8.76,30.46
228407,0.16,-1.00,-0.09,-1.66,6.84,-10.08,30.46
228417,0.18,-0.99,-0.10,-3.19,5.16,-12.29,30.46
228427,0.19,-0.99,-0.13,-4.47,5.45,-13.24,30.46
228437,0.19,-1.00,-0.11,-6.35,6.05,-14.23,30.46
228447,0.18,-1.01,-0.09,-9.19,6.06,-16.34,30.41
228457,0.17,-1.00,-0.05,-11.74,5.53,-19.92,30.41
228467,0.16,-0.98,-0.03,-11.44,4.06,-21.74,30.41
228477,0.13,-0.94,-0.05,-8.76,4.29,-18.58,30.41
228487,0.12,-0.90,-0.08,-6.15,7.92,-10.93,30.41
228497,0.10,-0.88,-0.11,-5.60,9.16,-0.60,30.37
228507,0.11,-0.87,-0.13,-8.24,10.70,8.82,30.37
