Timestamp,Acce_X,Acce_Y,Acce_Z,Gyro_X,Gyro_Y,Gyro_Z,Temp
48137,-0.17,-1.08,0.11,6.95,-17.07,-1.98,33.00
48147,-0.19,-1.08,0.11,7.80,-21.45,-1.66,32.91
48157,-0.18,-1.08,0.09,7.45,-23.22,-0.43,32.91
48167,-0.20,-1.09,0.08,6.85,-26.38,0.35,33.00
48177,-0.20,-1.11,0.10,6.17,-29.69,-0.99,32.91
48187,-0.21,-1.11,0.12,3.57,-32.95,-4.26,33.00
48197,-0.23,-1.12,0.15,3.62,-40.18,-10.06,32.91
48207,-0.27,-1.12,0.18,5.83,-49.97,-18.95,32.91
48217,-0.32,-1.11,0.18,7.57,-63.33,-27.68,33.00
48227,-0.35,-1.11,0.16,8.52,-77.13,-33.91,33.00
48237,-0.34,-1.08,0.07,2.84,-82.24,-35.98,33.00
48247,-0.32,-1.06,0.01,-10.96,-80.64,-36.47,32.91
48257,-0.28,-1.01,-0.05,-26.14,-71.69,-33.77,32.86
48267,-0.30,-0.96,-0.14,-43.27,-62.69,-27.18,32.95
48277,-0.32,-0.89,-0.14,-56.56,-65.31,-12.55,32.95
48287,-0.26,-0.85,-0.23,-68.03,-71.07,4.89,32.95
48297,-0.17,-0.88,-0.29,-81.42,-74.72,15.95,33.05
48307,-0.17,-0.96,-0.13,-89.34,-91.73,19.10,32.95
48317,-0.08,-1.03,-0.04,-84.31,-100.81,11.73,32.95
48327,-0.01,-1.10,0.02,-72.08,-115.92,-1.65,32.86
48337,0.05,-1.13,0.04,-57.05,-129.15,-13.34,32.95
48347,0.05,-1.16,0.05,-41.13,-142.99,-20.02,32.95
48357,0.09,-1.19,0.04,-27.98,-149.08,-19.79,32.95
48367,0.11,-1.20,0.03,-17.42,-147.08,-14.55,32.95
48377,0.18,-1.20,-0.01,-11.56,-130.55,-9.45,32.91
48387,0.22,-1.20,-0.01,-8.02,-109.30,-5.45,32.86
48397,0.23,-1.18,0.01,-6.23,-88.67,-5.07,32.95
48407,0.22,-1.16,0.02,-3.59,-76.17,-10.02,32.91
48417,0.20,-1.15,0.01,2.23,-70.09,-18.27,33.00
48427,0.19,-1.12,-0.04,4.38,-67.71,-30.55,32.91
48437,0.13,-1.11,-0.05,3.66,-73.71,-41.22,32.91
48447,0.06,-1.07,-0.09,0.43,-75.56,-45.65,33.00
48457,0.02,-1.03,-0.13,-2.56,-76.14,-41.50,32.91
48467,-0.00,-1.02,-0.15,-7.53,-66.82,-32.32,33.00
48477,-0.02,-1.00,-0.12,-9.10,-58.73,-19.33,32.91
48487,-0.02,-1.02,-0.08,-7.07,-51.10,-7.30,32.91
48497,-0.02,-1.02,-0.04,-1.51,-46.40,2.66,32.91
48507,-0.01,-1.04,-0.01,4.50,-45.94,6.00,33.00
48517,-0.02,-1.05,0.01,10.18,-51.69,4.56,32.91
48527,-0.04,-1.04,0.01,16.11,-60.14,2.89,32.91
48537,-0.05,-1.00,-0.06,16.49,-63.21,2.12,33.00
48547,-0.05,-0.97,-0.13,9.37,-59.69,4.63,32.95
48557,-0.06,-0.96,-0.11,2.50,-57.88,8.69,32.95
48567,-0.06,-0.98,-0.08,-1.63,-55.36,10.82,32.86
48577,-0.08,-0.99,-0.07,-2.17,-55.30,10.31,32.86
48587,-0.11,-1.01,-0.05,-1.01,-57.56,11.08,32.95
48597,-0.11,-1.00,-0.07,-1.66,-61.10,13.45,32.95
48607,-0.07,-0.99,-0.05,-2.92,-62.08,14.35,32.95
48617,-0.04,-0.97,-0.05,-3.39,-62.23,14.34,32.95
48627,-0.03,-0.98,-0.06,-3.45,-60.58,14.23,32.91
48637,-0.05,-1.00,-0.06,-2.98,-59.24,14.96,32.95
48647,-0.07,-1.00,-0.05,-2.02,-58.34,16.95,32.95
48657,-0.07,-1.01,-0.06,-0.52,-57.28,19.10,32.95
48667,-0.06,-1.02,-0.05,0.85,-57.80,19.80,32.91
48677,-0.02,-1.01,-0.07,1.27,-58.35,19.10,32.91
48687,0.03,-1.00,-0.07,2.02,-59.28,14.89,32.91
48697,0.03,-1.00,-0.07,0.90,-61.24,8.81,32.81
48707,0.02,-1.01,-0.12,-0.50,-63.48,5.77,32.81
48717,0.01,-1.01,-0.11,-2.56,-60.95,7.05,32.91
48727,-0.02,-1.03,-0.12,-5.83,-60.52,9.86,32.91
48737,-0.05,-1.04,-0.11,-8.37,-61.02,14.40,32.81
48747,-0.05,-1.02,-0.08,-9.21,-59.10,18.11,33.00
48757,-0.04,-1.05,-0.05,-7.39,-56.90,17.82,32.91
48767,-0.01,-1.02,-0.05,-3.63,-57.13,14.82,32.91
48777,0.03,-1.02,-0.03,2.11,-60.72,10.00,32.91
48787,0.04,-1.02,-0.08,3.48,-59.77,4.52,32.91
48797,0.00,-1.01,-0.11,3.16,-58.95,2.58,32.91
48807,-0.05,-1.03,-0.12,0.70,-58.35,4.03,33.00
48817,-0.09,-1.03,-0.10,-2.41,-57.31,8.23,32.95
48827,-0.06,-1.03,-0.06,-7.30,-54.95,10.29,32.95
48837,-0.05,-1.03,-0.01,-10.75,-54.20,4.76,33.05
48847,-0.05,-1.02,0.01,-8.60,-55.86,-4.35,32.95
48857,-0.05,-1.02,-0.01,-6.60,-62.27,-14.81,32.86
48867,-0.00,-0.99,-0.04,-6.03,-64.49,-27.10,32.95
48877,0.02,-0.96,-0.05,-6.64,-68.99,-39.63,33.05
48887,0.02,-0.92,-0.07,-8.11,-72.26,-50.52,32.86
48897,0.00,-0.89,-0.11,-10.67,-73.85,-58.32,32.86
48907,-0.06,-0.90,-0.11,-16.31,-77.77,-64.96,32.77
48917,-0.10,-0.93,-0.11,-19.28,-82.73,-65.22,32.91
48927,-0.13,-0.93,-0.09,-21.48,-84.52,-62.84,32.86
48937,-0.09,-0.93,-0.04,-17.85,-85.63,-61.91,32.95
48947,-0.05,-0.88,-0.06,-12.61,-85.34,-61.24,32.95
48957,-0.03,-0.83,-0.11,-9.89,-86.69,-61.04,33.00
48967,-0.10,-0.82,-0.17,-12.79,-91.76,-59.71,32.91
48977,-0.17,-0.86,-0.24,-18.92,-94.84,-47.47,32.91
48987,-0.21,-0.89,-0.25,-26.32,-92.81,-26.95,33.00
48997,-0.19,-0.94,-0.21,-30.55,-85.83,-3.68,33.00
49007,-0.13,-1.02,-0.13,-26.15,-77.21,19.51,32.91
49017,-0.07,-1.07,-0.09,-16.78,-69.68,37.42,33.00
49027,-0.01,-1.11,-0.05,-7.59,-64.53,47.92,32.91
49037,0.09,-1.11,-0.03,-0.37,-64.11,48.84,32.91
49047,0.17,-1.10,-0.05,5.74,-66.17,40.79,33.00
49057,0.20,-1.04,-0.09,6.73,-72.12,25.36,33.00
49067,0.16,-1.03,-0.13,4.05,-80.82,11.36,32.91
49077,0.11,-1.01,-0.20,-2.11,-84.17,3.83,32.91
49087,0.07,-0.99,-0.19,-8.23,-85.22,-0.06,33.00
49097,0.05,-0.96,-0.17,-12.26,-81.47,-2.41,32.95
49107,0.06,-0.93,-0.18,-13.53,-75.76,-4.60,32.86
49117,0.02,-0.92,-0.17,-13.45,-72.82,-7.56,32.86
49127,-0.00,-0.88,-0.16,-14.46,-73.77,-11.34,33.05
49137,-0.04,-0.84,-0.15,-15.63,-79.24,-16.27,32.95
49147,-0.04,-0.82,-0.18,-16.90,-84.82,-20.14,32.86
49157,-0.06,-0.79,-0.24,-20.12,-88.56,-22.11,32.86
49167,-0.04,-0.79,-0.26,-26.18,-89.31,-24.02,32.86
49177,-0.04,-0.80,-0.27,-33.02,-88.44,-26.40,32.95
49187,-0.07,-0.83,-0.28,-38.37,-87.66,-25.69,32.95
49197,-0.08,-0.88,-0.25,-43.07,-89.22,-22.38,32.86
49207,-0.07,-0.94,-0.21,-45.79,-92.00,-17.91,32.91
49217,-0.02,-0.97,-0.17,-44.47,-92.56,-13.98,32.86
49227,0.02,-1.00,-0.13,-40.02,-92.32,-13.13,32.91
49237,0.05,-1.03,-0.12,-35.83,-91.53,-12.95,32.91
49247,0.05,-1.04,-0.16,-30.95,-89.28,-8.96,32.91
49257,0.02,-1.04,-0.17,-26.72,-85.05,-0.87,32.91
49267,0.03,-1.06,-0.17,-20.64,-80.53,8.69,32.91
49277,0.02,-1.09,-0.19,-14.31,-78.44,19.16,32.91
49287,0.07,-1.09,-0.22,-12.27,-73.59,27.11,32.91
49297,0.12,-1.10,-0.22,-13.08,-69.24,30.79,32.91
49307,0.17,-1.06,-0.20,-12.89,-66.05,30.03,32.91
49317,0.21,-1.04,-0.21,-8.58,-65.86,27.21,32.81
49327,0.24,-1.03,-0.25,-3.44,-66.02,20.55,32.91
49337,0.23,-1.03,-0.30,-2.20,-67.15,12.18,32.81
49347,0.18,-1.02,-0.34,-6.15,-69.07,6.81,32.91
49357,0.15,-1.02,-0.36,-14.05,-69.40,5.53,32.91
49367,0.12,-1.02,-0.33,-22.00,-71.08,6.40,32.86
49377,0.05,-1.04,-0.27,-27.45,-75.51,8.78,32.86
49387,-0.12,-1.06,-0.18,-27.37,-90.20,16.37,32.95
49397,-0.23,-1.05,-0.11,-15.51,-103.76,36.72,32.95
49407,-0.16,-1.02,-0.12,-2.82,-103.22,58.67,32.95
49417,-0.01,-0.97,-0.13,6.99,-90.29,67.92,32.95
49427,0.13,-0.94,-0.20,18.34,-71.76,67.37,32.95
49437,0.19,-0.95,-0.27,21.04,-57.62,55.30,32.86
49447,0.16,-1.00,-0.32,18.96,-59.83,42.64,32.86
49457,0.15,-1.04,-0.39,9.31,-69.02,31.97,32.91
49467,0.14,-1.06,-0.41,-6.53,-76.58,24.70,32.95
49477,0.17,-1.09,-0.39,-20.76,-76.90,18.49,32.95
49487,0.15,-1.13,-0.32,-31.88,-74.21,11.53,32.95
49497,0.09,-1.18,-0.19,-38.40,-70.99,4.70,32.81
49507,0.05,-1.20,-0.09,-34.15,-69.83,0.99,32.95
49517,-0.03,-1.18,-0.06,-23.73,-64.95,2.26,33.00
49527,-0.15,-1.18,-0.06,-13.44,-59.24,10.81,32.91
49537,-0.22,-1.18,-0.08,-4.32,-55.34,25.63,32.91
49547,-0.21,-1.17,-0.12,5.13,-52.87,43.34,32.91
49557,-0.14,-1.14,-0.18,12.52,-44.18,59.11,32.91
49567,-0.05,-1.13,-0.17,16.99,-36.82,66.41,32.81
49577,-0.01,-1.13,-0.16,21.04,-36.82,64.70,32.91
49587,0.03,-1.10,-0.18,23.11,-38.17,55.01,33.00
49597,0.07,-1.05,-0.24,19.56,-40.34,43.30,33.00
49607,0.07,-1.04,-0.30,8.26,-43.28,30.38,32.91
49617,0.04,-1.06,-0.29,-7.21,-48.75,17.42,33.00
49627,0.02,-1.06,-0.26,-20.95,-54.34,7.08,32.91
49637,0.03,-1.07,-0.20,-29.86,-51.85,-1.69,32.91
49647,-0.02,-1.07,-0.14,-30.15,-55.31,-6.24,32.81
49657,-0.10,-1.08,-0.10,-28.85,-53.30,-9.63,32.91
49667,-0.14,-1.07,-0.11,-24.08,-51.21,-9.45,32.91
49677,-0.15,-1.04,-0.10,-20.95,-49.45,-9.94,32.91
49687,-0.21,-1.01,-0.12,-21.16,-49.79,-10.52,32.91
49697,-0.25,-0.97,-0.12,-22.31,-45.07,-8.02,32.95
49707,-0.28,-0.94,-0.12,-23.37,-50.55,-3.53,32.86
49717,-0.23,-0.88,-0.13,-22.63,-47.56,-0.50,32.86
49727,-0.23,-0.85,-0.13,-16.44,-40.09,2.47,32.86
49737,-0.23,-0.84,-0.16,-10.02,-37.56,5.11,32.95
49747,-0.24,-0.85,-0.21,-10.64,-35.88,4.93,32.86
49757,-0.20,-0.88,-0.23,-17.88,-31.88,4.40,33.05
49767,-0.14,-0.94,-0.21,-25.07,-28.76,1.30,32.86
49777,-0.04,-0.99,-0.14,-30.66,-22.64,-4.98,32.95
49787,-0.05,-1.04,-0.04,-33.01,-21.74,-12.82,32.95
49797,-0.12,-1.05,0.03,-26.17,-27.82,-16.43,32.86
49807,-0.18,-1.03,0.00,-16.63,-30.93,-15.57,32.86
49817,-0.27,-1.02,-0.02,-10.69,-34.21,-11.80,32.95
49827,-0.30,-0.99,-0.07,-6.02,-34.61,-3.08,33.00
49837,-0.30,-0.97,-0.09,-6.55,-31.48,5.16,33.05
49847,-0.26,-0.95,-0.11,-4.73,-26.56,12.69,32.91
49857,-0.19,-0.96,-0.12,-2.21,-22.63,16.56,32.91
49867,-0.14,-0.98,-0.15,-2.34,-19.01,16.37,32.91
49877,-0.09,-0.99,-0.17,-4.98,-19.16,12.37,32.91
49887,-0.05,-0.99,-0.20,-8.46,-18.87,5.83,32.91
49897,-0.01,-0.99,-0.21,-12.11,-17.31,-1.97,32.91
49907,-0.06,-1.00,-0.20,-15.80,-18.06,-10.18,33.00
49917,-0.13,-1.00,-0.18,-17.82,-20.34,-12.75,32.91
49927,-0.23,-1.01,-0.14,-19.79,-23.08,-11.57,32.91
49937,-0.29,-1.00,-0.11,-15.21,-22.66,-4.87,32.81
49947,-0.26,-0.99,-0.13,-10.20,-17.16,2.89,32.91
49957,-0.22,-1.02,-0.13,-6.29,-10.58,7.79,32.91
49967,-0.15,-1.02,-0.14,-1.37,-6.89,10.34,32.91
49977,-0.10,-1.00,-0.19,-1.34,-4.29,8.06,32.91
49987,-0.10,-1.01,-0.20,-5.79,-4.66,4.03,33.00
49997,-0.11,-1.01,-0.19,-10.21,-6.98,0.31,33.00
50007,-0.15,-1.01,-0.18,-14.56,-12.60,-2.73,32.95
50017,-0.16,-1.00,-0.17,-15.02,-15.48,-2.79,32.86
50027,-0.15,-1.01,-0.18,-14.72,-13.45,-1.62,32.86
50037,-0.14,-1.02,-0.15,-13.63,-10.55,-1.07,32.95
50047,-0.16,-1.04,-0.14,-13.27,-8.32,-1.82,32.95
50057,-0.17,-1.04,-0.12,-12.84,-7.54,-1.98,32.95
50067,-0.16,-1.02,-0.13,-13.74,-4.34,-5.50,32.95
50077,-0.18,-0.99,-0.07,-13.40,-10.58,-12.02,32.95
50087,-0.21,-0.94,-0.06,-13.31,-16.00,-19.98,32.95
50097,-0.28,-0.90,-0.07,-12.11,-21.07,-23.88,32.95
50107,-0.35,-0.86,-0.10,-13.30,-21.36,-21.39,32.95
50117,-0.39,-0.86,-0.09,-13.98,-19.44,-11.91,32.91
50127,-0.37,-0.93,-0.10,-12.44,-16.60,0.09,32.95
50137,-0.32,-0.98,-0.08,-12.21,-12.98,9.36,32.95
50147,-0.20,-1.03,-0.06,-10.49,-11.27,10.85,33.05
50157,-0.14,-1.05,-0.08,-8.03,-11.07,6.75,32.91
50167,-0.14,-1.05,-0.10,-7.65,-12.34,1.37,32.91
50177,-0.18,-1.01,-0.12,-8.18,-15.79,-3.05,32.91
50187,-0.22,-0.99,-0.14,-8.67,-19.01,-3.80,32.91
50197,-0.22,-0.97,-0.15,-8.78,-19.60,-1.98,33.00
50207,-0.21,-0.96,-0.20,-7.89,-17.08,2.46,33.00
50217,-0.19,-0.99,-0.19,-7.34,-13.57,6.50,33.00
50227,-0.14,-1.02,-0.18,-6.96,-11.69,7.66,32.91
50237,-0.08,-1.03,-0.19,-6.84,-9.85,6.18,32.91
50247,-0.07,-1.04,-0.19,-6.31,-9.31,2.34,32.81
50257,-0.06,-1.05,-0.21,-4.92,-9.34,-1.42,32.91
50267,-0.07,-1.04,-0.24,-5.57,-9.16,-5.19,32.91
50277,-0.10,-1.03,-0.24,-7.85,-9.18,-7.88,33.00
50287,-0.12,-1.02,-0.24,-10.87,-8.72,-8.05,32.95
50297,-0.14,-1.02,-0.22,-12.41,-6.55,-5.45,32.86
50307,-0.15,-1.03,-0.19,-11.25,-3.98,-2.67,32.95
50317,-0.13,-1.05,-0.18,-8.75,-1.59,0.08,32.95
50327,-0.11,-1.07,-0.15,-6.81,0.41,-0.23,32.95
50337,-0.09,-1.07,-0.17,-4.09,1.97,-2.56,32.95
50347,-0.11,-1.06,-0.18,-4.00,1.94,-5.69,32.86
50357,-0.14,-1.03,-0.20,-5.36,0.17,-8.23,32.86
50367,-0.16,-1.01,-0.21,-7.48,0.12,-8.73,32.86
50377,-0.18,-1.00,-0.20,-9.69,0.69,-7.15,32.95
50387,-0.20,-1.01,-0.18,-9.73,1.13,-3.56,32.86
50397,-0.18,-1.01,-0.16,-7.79,3.15,-0.40,32.95
50407,-0.17,-1.01,-0.13,-4.63,4.32,1.31,32.91
50417,-0.16,-1.00,-0.13,-0.96,5.18,1.37,32.86
50427,-0.18,-0.96,-0.12,1.63,3.54,0.31,32.95
50437,-0.21,-0.94,-0.13,4.02,0.18,-0.03,32.95
50447,-0.21,-0.91,-0.15,7.39,-0.96,1.21,33.00
50457,-0.22,-0.91,-0.15,8.61,-6.03,0.35,32.95
50467,-0.20,-0.94,-0.17,5.98,-10.29,-2.37,32.91
50477,-0.20,-0.93,-0.12,1.18,-16.43,-7.02,32.91
50487,-0.24,-0.92,-0.10,-0.27,-23.07,-9.36,32.81
50497,-0.26,-0.89,-0.17,0.46,-20.03,-6.35,32.91
50507,-0.25,-0.90,-0.18,-2.95,-15.02,-2.38,33.00
50517,-0.24,-0.94,-0.15,-5.24,-11.39,1.45,32.91
50527,-0.19,-1.01,-0.14,-5.27,-10.66,3.34,32.91
50537,-0.11,-1.04,-0.13,-5.50,-3.59,1.50,32.91
50547,-0.06,-1.07,-0.11,-4.92,0.38,-4.15,32.91
50557,-0.07,-1.10,-0.10,-3.76,2.15,-11.01,33.00
50567,-0.11,-1.12,-0.08,-1.36,-0.29,-15.28,32.91
50577,-0.16,-1.10,-0.08,0.55,-3.53,-16.69,32.91
50587,-0.17,-1.10,-0.09,5.68,-6.21,-14.31,32.91
50597,-0.16,-1.09,-0.11,8.84,-2.72,-11.30,33.00
50607,-0.17,-1.09,-0.15,12.96,3.79,-5.07,32.91
50617,-0.16,-1.09,-0.18,13.76,11.28,0.79,32.86
50627,-0.14,-1.09,-0.17,12.67,14.53,4.43,32.86
50637,-0.11,-1.09,-0.19,12.14,15.89,6.50,32.95
50647,-0.07,-1.11,-0.19,9.89,15.97,6.46,32.95
50657,-0.03,-1.14,-0.20,9.33,14.76,5.59,32.86
50667,0.02,-1.17,-0.19,9.07,15.37,2.87,33.05
50677,0.04,-1.17,-0.16,9.79,14.02,-2.53,32.95
50687,0.06,-1.15,-0.14,12.41,19.08,-10.11,32.95
50697,0.02,-1.15,-0.12,17.71,20.75,-16.03,32.86
50707,-0.01,-1.16,-0.13,21.24,24.03,-19.27,32.95
50717,-0.03,-1.17,-0.14,23.83,28.53,-19.28,32.95
50727,-0.05,-1.16,-0.14,25.71,35.68,-17.88,33.05
50737,-0.10,-1.17,-0.11,27.15,41.21,-17.44,32.91
50747,-0.19,-1.16,-0.05,28.38,42.32,-13.16,32.95
50757,-0.27,-1.13,-0.03,33.73,40.17,-4.02,33.00
50767,-0.29,-1.11,-0.03,39.47,42.73,7.21,33.00
50777,-0.29,-1.09,-0.01,42.67,47.21,17.94,33.00
50787,-0.28,-1.07,0.00,47.71,49.59,27.62,33.00
50797,-0.22,-1.04,-0.01,52.73,52.53,32.81,32.91
50807,-0.10,-1.02,-0.02,53.89,54.82,30.81,32.91
50817,0.02,-0.96,-0.07,53.34,55.63,22.27,32.91
50827,0.10,-0.95,-0.14,51.37,56.53,8.89,33.00
50837,0.12,-0.96,-0.20,46.34,54.20,-6.32,33.09
50847,0.11,-0.97,-0.22,37.40,50.63,-19.15,33.00
50857,0.05,-1.00,-0.21,27.13,48.14,-29.11,32.91
50867,-0.00,-1.01,-0.16,19.97,49.54,-33.44,32.91
50877,-0.10,-1.02,-0.11,17.59,50.82,-31.60,32.95
50887,-0.14,-1.04,-0.05,23.37,53.91,-23.36,33.05
50897,-0.14,-1.03,-0.03,33.50,59.62,-11.98,33.05
50907,-0.12,-1.03,-0.06,44.47,69.51,0.24,32.95
50917,-0.09,-1.05,-0.07,52.40,78.24,10.93,32.95
50927,-0.04,-1.07,-0.11,55.69,85.95,17.40,32.95
50937,0.04,-1.07,-0.12,57.39,91.65,19.50,33.05
50947,0.10,-1.07,-0.13,57.63,96.29,16.49,32.95
50957,0.15,-1.08,-0.12,58.81,99.92,9.25,32.95
50967,0.08,-1.10,-0.10,55.98,95.15,-1.63,32.95
50977,-0.01,-1.12,-0.07,53.50,86.52,-11.08,32.95
50987,-0.01,-1.12,-0.09,49.83,78.96,-19.33,32.91
50997,0.01,-1.10,-0.13,43.82,81.48,-27.15,32.95
51007,-0.07,-1.11,-0.09,34.52,82.76,-31.28,32.95
51017,-0.06,-1.11,-0.02,30.40,86.27,-29.19,33.00
51027,-0.01,-1.13,0.02,31.01,96.92,-27.50,33.00
51037,-0.06,-1.13,0.08,36.38,100.60,-25.54,33.00
51047,-0.21,-1.18,0.14,44.81,95.33,-20.15,33.00
51057,-0.27,-1.17,0.18,56.79,85.40,-8.93,32.91
51067,-0.17,-1.13,0.07,65.34,93.74,-0.85,32.91
51077,-0.06,-1.07,0.07,68.38,115.50,5.66,33.00
51087,0.04,-1.02,0.02,73.86,139.24,9.74,33.00
51097,0.08,-1.00,-0.03,77.83,162.37,10.82,33.00
51107,0.12,-1.00,-0.03,81.88,178.00,5.66,32.91
51117,0.15,-0.97,-0.02,82.24,186.66,-7.89,32.91
51127,0.12,-0.96,-0.05,80.08,187.19,-24.08,32.91
51137,-0.00,-0.92,-0.05,71.65,175.11,-39.73,33.00
51147,-0.23,-0.90,-0.07,60.89,150.63,-47.62,32.95
51157,-0.42,-0.87,-0.08,52.64,115.97,-41.68,32.95
51167,-0.47,-0.83,-0.09,43.77,91.25,-25.53,32.95
51177,-0.43,-0.82,-0.09,32.89,80.40,-6.98,32.95
51187,-0.36,-0.84,-0.06,24.41,84.18,11.36,33.05
51197,-0.31,-0.86,0.00,24.12,91.33,29.98,32.95
51207,-0.24,-0.89,0.01,26.84,109.15,44.21,32.86
51217,-0.19,-0.95,0.09,29.65,120.32,50.26,33.05
51227,-0.12,-1.01,0.16,31.69,122.67,48.47,32.95
51237,-0.05,-1.05,0.22,36.12,118.55,40.20,33.00
51247,0.01,-1.09,0.24,41.25,113.79,26.89,32.95
51257,0.07,-1.09,0.24,44.43,107.76,8.41,32.95
51267,0.13,-1.10,0.21,46.95,100.58,-13.51,32.95
51277,0.15,-1.12,0.17,47.37,90.99,-36.75,32.91
51287,0.17,-1.15,0.10,43.53,84.27,-58.15,32.91
51297,0.13,-1.16,0.09,34.29,83.10,-75.13,33.00
51307,-0.01,-1.12,0.11,25.47,89.10,-80.34,33.00
51317,-0.14,-1.07,0.12,21.22,101.36,-73.36,33.00
51327,-0.26,-1.04,0.15,25.11,114.85,-57.04,32.91
51337,-0.35,-1.01,0.18,35.88,120.90,-36.73,32.91
51347,-0.36,-0.99,0.17,47.16,121.15,-18.06,32.91
51357,-0.34,-0.95,0.10,56.64,116.08,-3.68,32.91
51367,-0.28,-0.89,0.01,56.29,110.89,4.38,33.00
51377,-0.23,-0.85,-0.08,48.60,104.89,7.91,32.91
51387,-0.19,-0.81,-0.10,34.69,95.53,7.68,32.91
51397,-0.14,-0.81,-0.07,20.55,86.67,5.60,33.00
51407,-0.10,-0.84,-0.03,8.60,77.85,-0.11,33.00
51417,-0.07,-0.88,0.01,-0.11,72.11,-6.96,33.00
51427,-0.06,-0.91,0.06,-5.44,70.34,-12.82,32.95
51437,-0.05,-0.96,0.15,-6.03,69.86,-19.33,32.95
51447,-0.08,-0.99,0.20,-1.79,71.60,-25.05,32.95
51457,-0.13,-1.01,0.23,5.22,75.54,-27.88,32.86
51467,-0.21,-1.00,0.23,18.29,80.69,-23.89,32.95
51477,-0.24,-0.97,0.19,29.85,87.10,-16.75,32.95
51487,-0.23,-0.96,0.12,34.61,91.31,-9.89,32.86
51497,-0.23,-0.93,0.11,30.81,94.09,-4.43,32.86
51507,-0.23,-0.92,0.09,26.63,94.09,1.05,32.95
51517,-0.21,-0.93,0.10,21.45,91.91,2.75,32.95
51527,-0.20,-0.94,0.12,16.32,90.43,-0.37,33.00
51537,-0.21,-0.96,0.16,13.95,86.49,-4.82,32.77
51547,-0.23,-0.99,0.18,13.28,82.37,-11.36,32.95
51557,-0.26,-1.00,0.23,16.58,79.36,-15.24,32.86
51567,-0.29,-1.00,0.23,22.72,77.34,-15.69,33.00
51577,-0.30,-1.00,0.20,27.54,78.50,-14.70,33.00
51587,-0.30,-0.97,0.17,28.76,80.69,-13.04,32.81
51597,-0.29,-0.94,0.14,26.70,81.25,-10.78,33.00
51607,-0.29,-0.94,0.10,22.84,80.60,-6.81,33.00
51617,-0.27,-0.93,0.09,18.20,80.76,-3.60,32.91
51627,-0.22,-0.94,0.09,13.79,81.04,-3.77,32.91
51637,-0.17,-0.95,0.12,7.63,80.92,-11.19,32.91
51647,-0.16,-0.97,0.19,4.14,74.05,-23.69,33.00
51657,-0.17,-1.00,0.22,2.46,61.89,-40.55,32.91
51667,-0.18,-0.99,0.24,1.25,49.13,-57.79,33.00
51677,-0.21,-1.00,0.20,-1.05,39.30,-69.42,32.91
51687,-0.27,-1.00,0.14,-6.99,36.12,-72.75,32.95
51697,-0.36,-1.03,0.12,-14.63,38.60,-66.44,32.86
51707,-0.40,-1.06,0.16,-20.31,43.39,-51.30,32.86
51717,-0.43,-1.07,0.21,-19.91,47.53,-29.83,32.86
51727,-0.39,-1.07,0.25,-14.56,56.50,-6.53,32.95
51737,-0.33,-1.06,0.26,-5.79,66.29,14.96,32.86
51747,-0.23,-1.05,0.25,5.27,77.21,30.52,32.95
51757,-0.17,-1.06,0.24,11.74,84.26,39.80,32.95
51767,-0.12,-1.05,0.22,14.53,88.20,43.21,32.86
51777,-0.09,-1.05,0.20,16.32,89.24,39.77,32.91
51787,-0.07,-1.05,0.22,17.45,87.54,31.60,32.95
51797,-0.07,-1.04,0.21,19.51,83.30,20.35,32.95
51807,-0.09,-1.02,0.19,20.18,78.31,9.60,32.95
51817,-0.10,-1.01,0.15,20.00,74.34,1.77,32.91
51827,-0.12,-1.02,0.15,17.08,73.69,-4.78,32.91
51837,-0.14,-1.03,0.15,15.86,76.31,-7.80,32.91
51847,-0.17,-1.04,0.17,15.91,73.97,-7.37,33.00
51857,-0.16,-1.05,0.18,16.98,76.29,-8.00,32.91
51867,-0.16,-1.04,0.21,20.37,77.50,-9.79,32.81
51877,-0.15,-1.02,0.21,26.73,78.09,-11.53,32.91
51887,-0.14,-1.00,0.17,29.60,79.57,-14.78,33.00
51897,-0.16,-0.99,0.17,29.95,79.82,-19.69,32.91
51907,-0.17,-0.95,0.14,30.44,79.30,-24.17,33.00
51917,-0.19,-0.94,0.11,27.95,77.68,-28.29,33.00
51927,-0.20,-0.92,0.10,23.60,76.43,-31.11,32.81
51937,-0.21,-0.91,0.10,20.56,74.17,-33.07,32.95
51947,-0.23,-0.91,0.10,17.71,72.90,-32.44,32.95
51957,-0.24,-0.91,0.09,14.96,73.18,-30.18,33.05
51967,-0.24,-0.92,0.10,12.27,74.03,-26.44,32.86
51977,-0.24,-0.91,0.11,9.44,76.52,-20.58,32.95
51987,-0.22,-0.92,0.12,7.95,81.79,-13.22,32.95
51997,-0.21,-0.94,0.15,7.37,88.50,-7.18,32.95
52007,-0.22,-0.97,0.16,9.10,92.52,-2.46,32.86
52017,-0.23,-0.99,0.18,12.31,94.61,-0.46,32.95
52027,-0.25,-0.99,0.19,15.95,92.26,-1.57,32.91
52037,-0.26,-0.99,0.19,19.10,89.02,-5.59,32.95
52047,-0.26,-0.98,0.17,20.79,84.43,-10.08,33.05
52057,-0.30,-0.94,0.16,20.41,78.50,-14.34,33.00
52067,-0.34,-0.90,0.16,19.98,72.12,-14.32,32.91
52077,-0.38,-0.88,0.15,18.82,66.93,-11.21,32.91
52087,-0.40,-0.90,0.12,16.72,63.51,-3.88,32.91
52097,-0.39,-0.95,0.10,9.76,68.67,4.69,32.91
52107,-0.41,-0.95,0.12,5.24,78.87,16.87,33.00
52117,-0.42,-0.97,0.14,6.05,90.44,30.75,33.00
52127,-0.42,-0.98,0.17,6.44,105.50,41.39,32.91
52137,-0.39,-0.99,0.21,12.58,105.04,47.28,33.00
52147,-0.35,-0.97,0.23,17.92,108.44,47.30,32.91
52157,-0.33,-0.95,0.22,23.11,105.60,42.41,33.00
52167,-0.28,-0.92,0.21,26.08,104.87,33.44,33.00
52177,-0.28,-0.90,0.14,27.02,94.40,20.05,32.91
52187,-0.25,-0.90,0.09,21.04,87.48,3.68,32.95
52197,-0.29,-0.92,0.09,13.71,74.46,-13.91,32.86
52207,-0.33,-0.95,0.11,4.50,63.95,-29.73,32.86
52217,-0.37,-0.96,0.14,-1.19,50.40,-41.01,32.95
52227,-0.40,-0.97,0.17,-5.80,42.60,-48.03,32.95
52237,-0.41,-0.95,0.18,-6.21,38.87,-48.47,32.95
52247,-0.41,-0.95,0.16,-4.85,41.25,-43.80,32.86
52257,-0.42,-0.96,0.16,-4.27,45.82,-35.56,32.95
52267,-0.41,-0.96,0.16,-3.85,50.78,-26.11,32.86
52277,-0.42,-0.99,0.18,-3.71,53.45,-17.36,32.91
52287,-0.40,-0.99,0.20,-0.98,54.52,-9.10,32.95
52297,-0.39,-0.98,0.22,1.91,56.15,-5.86,32.86
52307,-0.36,-0.96,0.22,5.98,55.22,-5.88,32.86
52317,-0.34,-0.96,0.20,8.47,52.69,-9.31,32.91
52327,-0.34,-0.94,0.17,7.15,49.25,-15.85,32.91
52337,-0.35,-0.93,0.17,4.70,42.52,-21.98,33.00
52347,-0.35,-0.93,0.14,1.83,36.76,-26.61,33.00
52357,-0.35,-0.94,0.13,-0.46,34.20,-28.78,33.00
52367,-0.35,-0.94,0.12,-2.34,33.88,-27.77,32.91
52377,-0.37,-0.95,0.13,-4.89,33.83,-24.15,32.91
52387,-0.36,-0.94,0.13,-7.79,35.13,-18.67,32.91
52397,-0.34,-0.91,0.11,-9.25,40.14,-12.67,32.91
52407,-0.35,-0.91,0.11,-12.32,43.08,-7.94,32.91
52417,-0.39,-0.94,0.14,-15.31,40.26,-5.82,32.91
52427,-0.39,-0.98,0.18,-17.36,34.64,-6.85,32.95
52437,-0.39,-1.01,0.23,-18.24,28.38,-11.25,33.05
52447,-0.39,-1.00,0.25,-14.29,22.08,-15.05,32.95
52457,-0.38,-1.00,0.24,-9.80,19.25,-18.58,32.95
52467,-0.39,-0.99,0.24,-7.02,18.27,-18.92,33.05
52477,-0.40,-0.98,0.20,-4.70,18.47,-18.09,32.86
52487,-0.39,-0.98,0.18,-4.85,17.57,-16.61,32.95
52497,-0.40,-0.97,0.16,-5.98,16.89,-14.18,32.86
52507,-0.40,-0.96,0.15,-6.00,17.13,-10.47,32.95
52517,-0.39,-0.97,0.15,-6.11,17.39,-7.11,32.86
52527,-0.39,-0.98,0.15,-7.69,17.22,-4.44,33.00
52537,-0.38,-1.00,0.17,-8.02,16.60,-3.07,32.95
52547,-0.37,-0.99,0.18,-8.27,15.69,-2.67,32.91
52557,-0.37,-0.99,0.18,-7.10,13.62,-2.75,33.00
52567,-0.35,-0.98,0.15,-4.82,12.58,-2.20,33.00
52577,-0.34,-0.99,0.14,-4.46,11.66,-2.31,32.91
52587,-0.33,-1.00,0.13,-6.98,9.24,-4.43,33.00
52597,-0.32,-1.02,0.16,-9.04,3.85,-8.20,32.91
52607,-0.30,-1.03,0.18,-9.44,-0.82,-13.18,33.00
52617,-0.29,-1.02,0.20,-7.48,-4.87,-16.73,32.91
52627,-0.28,-0.99,0.16,-4.79,-4.21,-16.75,33.00
52637,-0.28,-0.96,0.13,-2.85,-2.85,-13.98,32.81
52647,-0.28,-0.96,0.13,-2.93,-2.66,-8.82,33.00
52657,-0.26,-0.96,0.12,-4.21,-1.69,-3.50,33.00
52667,-0.25,-0.97,0.14,-3.77,0.21,0.96,32.91
52677,-0.25,-1.00,0.16,-2.12,0.46,3.57,32.95
52687,-0.24,-1.02,0.18,-0.76,0.64,4.40,32.95
52697,-0.23,-1.03,0.18,-2.43,1.95,2.43,33.05
52707,-0.24,-1.03,0.19,-2.67,2.52,1.54,32.95
52717,-0.23,-1.02,0.21,-1.15,3.18,-0.14,32.95
52727,-0.23,-1.02,0.18,0.32,3.97,-2.08,32.95
52737,-0.24,-1.02,0.16,0.17,4.03,-3.39,32.95
52747,-0.25,-1.02,0.17,-1.11,3.85,-3.82,32.86
52757,-0.25,-1.02,0.16,-2.26,3.33,-3.56,32.86
52767,-0.25,-1.02,0.18,-2.15,3.24,-2.89,32.95
52777,-0.24,-1.03,0.19,-0.34,3.05,-4.09,32.91
52787,-0.23,-1.02,0.21,1.11,1.97,-6.81,32.91
52797,-0.23,-1.01,0.21,3.10,-0.27,-9.68,32.91
52807,-0.23,-1.00,0.20,4.17,-1.30,-11.77,32.91
52817,-0.25,-0.98,0.18,5.31,-1.16,-12.23,33.00
52827,-0.25,-0.97,0.16,4.64,-0.69,-11.62,32.91
52837,-0.26,-0.97,0.15,3.18,-0.76,-10.02,33.00
52847,-0.26,-0.96,0.15,2.12,-0.87,-7.88,33.00
52857,-0.24,-0.96,0.15,1.65,-1.27,-5.04,32.91
52867,-0.23,-0.96,0.14,0.72,-0.03,-3.27,32.91
52877,-0.21,-0.98,0.15,-1.02,0.38,-2.99,33.00
52887,-0.20,-0.99,0.16,-2.81,-0.08,-4.15,32.91
52897,-0.21,-1.00,0.18,-4.29,-2.03,-7.39,33.00
52907,-0.23,-0.98,0.16,-7.37,1.50,-10.24,32.86
52917,-0.21,-0.97,0.21,-3.31,-3.91,-11.83,33.05
52927,-0.22,-0.95,0.18,-1.30,-0.99,-10.23,32.95
52937,-0.23,-0.95,0.15,-1.40,0.56,-6.73,32.95
52947,-0.24,-0.95,0.13,-4.47,3.31,-2.11,32.95
52957,-0.24,-0.97,0.16,-6.55,3.98,1.80,32.95
52967,-0.23,-1.00,0.20,-7.04,3.25,4.31,33.05
52977,-0.23,-1.03,0.23,-5.50,1.95,4.52,32.95
52987,-0.23,-1.03,0.27,-1.42,1.05,4.73,32.95
52997,-0.23,-1.05,0.27,2.85,0.61,4.43,32.95
53007,-0.23,-1.06,0.26,5.62,-0.27,3.73,32.95
53017,-0.23,-1.07,0.26,6.55,-1.25,3.10,32.95
53027,-0.23,-1.07,0.24,6.55,-2.72,1.63,33.00
53037,-0.22,-1.05,0.23,6.44,-4.21,-0.09,33.05
53047,-0.21,-1.04,0.21,4.64,-6.31,-2.35,33.00
53057,-0.21,-1.02,0.21,1.91,-10.32,-5.11,32.91
53067,-0.21,-1.01,0.22,0.82,-13.44,-7.53,33.00
53077,-0.22,-0.98,0.22,0.58,-14.29,-8.70,33.00
53087,-0.21,-0.97,0.20,0.89,-13.97,-7.50,32.91
53097,-0.21,-0.95,0.18,0.32,-11.83,-5.02,33.00
53107,-0.21,-0.95,0.19,-1.98,-11.27,-2.99,33.00
53117,-0.21,-0.95,0.18,-4.02,-11.37,-0.41,32.91
53127,-0.19,-0.96,0.19,-6.47,-11.39,1.40,32.91
