Timestamp,Acce_X,Acce_Y,Acce_Z,Gyro_X,Gyro_Y,Gyro_Z,Temp
53897,-0.16,-0.99,0.20,-15.15,-21.15,7.88,32.91
53907,-0.15,-0.99,0.21,-14.44,-21.42,7.10,32.91
53917,-0.15,-1.00,0.21,-13.73,-21.77,5.76,33.00
53927,-0.13,-1.00,0.18,-12.89,-21.45,3.92,32.91
53937,-0.13,-1.00,0.17,-11.44,-20.87,4.37,33.09
53947,-0.13,-1.00,0.17,-12.72,-19.05,6.06,33.00
53957,-0.12,-1.01,0.18,-14.47,-17.22,7.79,32.91
53967,-0.10,-1.04,0.20,-14.40,-15.74,8.23,33.00
53977,-0.07,-1.07,0.21,-12.50,-14.15,8.49,33.00
53987,-0.04,-1.10,0.21,-10.90,-12.24,8.17,33.09
53997,-0.01,-1.12,0.22,-10.35,-10.31,6.98,32.81
54007,0.03,-1.12,0.21,-8.55,-7.69,4.70,33.00
54017,0.06,-1.16,0.23,-7.13,-4.43,1.63,33.00
54027,0.07,-1.18,0.25,-5.27,-1.40,-1.31,32.91
54037,0.08,-1.19,0.25,-2.56,2.47,-3.28,32.91
54047,0.11,-1.22,0.27,0.24,7.07,-4.72,32.91
54057,0.13,-1.23,0.28,4.23,12.27,-7.50,32.95
54067,0.14,-1.24,0.30,9.44,16.52,-12.43,32.86
54077,0.14,-1.23,0.30,16.31,19.15,-17.16,33.05
54087,0.13,-1.20,0.26,21.42,23.01,-21.33,32.86
54097,0.07,-1.17,0.23,24.82,27.01,-22.05,32.86
54107,0.05,-1.14,0.23,27.47,33.01,-16.87,33.05
54117,0.03,-1.11,0.21,30.38,42.27,-9.21,33.05
54127,0.04,-1.09,0.21,32.85,52.02,-3.10,32.95
54137,0.07,-1.07,0.21,34.81,57.45,-0.12,32.95
54147,0.09,-1.02,0.19,36.99,61.53,0.56,33.00
54157,0.11,-1.01,0.17,37.13,65.22,-1.50,32.95
54167,0.11,-1.01,0.14,36.21,67.86,-5.56,32.95
54177,0.12,-1.01,0.10,33.63,68.47,-10.79,32.95
54187,0.11,-1.01,0.10,29.22,69.11,-16.18,32.91
54197,0.08,-1.00,0.10,25.34,69.95,-20.29,33.00
54207,0.08,-1.00,0.11,21.69,69.69,-24.64,33.09
54217,0.08,-1.02,0.13,20.03,69.91,-29.24,32.91
54227,0.07,-1.05,0.16,22.24,71.25,-33.05,33.00
54237,0.06,-1.09,0.20,25.53,75.02,-35.18,32.91
54247,0.05,-1.11,0.19,29.60,80.21,-35.68,32.91
54257,0.01,-1.12,0.19,30.70,82.24,-36.66,33.00
54267,-0.01,-1.12,0.21,32.56,86.73,-35.95,32.91
54277,-0.02,-1.10,0.21,35.31,89.62,-35.57,33.09
54287,-0.01,-1.07,0.18,37.19,94.43,-34.93,33.00
54297,-0.02,-1.04,0.16,37.42,97.08,-35.02,32.91
54307,-0.04,-1.02,0.11,34.53,102.90,-34.43,32.91
54317,-0.08,-1.02,0.14,31.77,99.57,-32.47,33.00
54327,-0.07,-1.00,0.10,28.02,100.32,-30.47,33.00
54337,-0.08,-1.02,0.11,25.79,102.79,-29.65,32.86
54347,-0.09,-1.02,0.15,23.65,102.34,-31.05,32.95
54357,-0.10,-1.03,0.17,23.66,97.65,-33.76,32.95
54367,-0.10,-1.02,0.16,23.42,95.34,-35.98,32.95
54377,-0.11,-1.02,0.15,22.40,93.33,-36.79,32.95
54387,-0.13,-1.02,0.14,20.85,94.63,-35.94,32.86
54397,-0.14,-1.00,0.15,19.73,95.82,-33.47,32.95
54407,-0.13,-0.99,0.15,18.67,96.27,-30.47,32.95
54417,-0.12,-0.99,0.14,18.26,98.67,-27.91,32.95
54427,-0.10,-1.00,0.15,19.65,100.70,-26.32,32.95
54437,-0.09,-1.00,0.12,20.02,102.08,-26.34,32.91
54447,-0.08,-1.00,0.12,18.40,102.85,-25.95,32.95
54457,-0.09,-1.00,0.12,16.87,102.66,-25.80,33.05
54467,-0.08,-1.03,0.12,16.63,101.94,-27.11,32.95
54477,-0.07,-1.05,0.13,16.35,101.22,-29.88,32.91
54487,-0.06,-1.06,0.15,19.27,99.50,-35.07,32.81
54497,-0.06,-1.05,0.14,21.54,94.84,-43.27,33.00
54507,-0.07,-1.01,0.11,22.09,90.21,-51.15,32.91
54517,-0.08,-0.95,0.09,20.50,85.86,-57.34,33.00
54527,-0.11,-0.92,0.07,19.05,85.40,-60.50,32.91
54537,-0.14,-0.88,0.05,17.08,86.44,-60.41,33.00
54547,-0.18,-0.86,0.04,12.82,87.18,-56.37,33.00
54557,-0.19,-0.84,0.02,6.35,88.75,-48.96,33.00
54567,-0.19,-0.83,0.04,0.79,91.88,-40.29,32.81
54577,-0.17,-0.86,0.07,-2.98,96.11,-32.06,32.91
54587,-0.14,-0.89,0.09,-5.24,97.86,-25.89,33.00
54597,-0.12,-0.94,0.12,-5.08,100.56,-21.98,32.91
54607,-0.08,-0.97,0.14,-4.21,101.77,-20.95,32.91
54617,-0.06,-1.02,0.16,-3.24,102.55,-22.31,32.91
54627,-0.07,-1.04,0.16,-2.35,103.18,-24.46,32.95
54637,-0.07,-1.05,0.14,-2.40,100.98,-28.29,32.95
54647,-0.07,-1.07,0.18,-2.67,96.05,-33.48,32.95
54657,-0.07,-1.08,0.19,-2.27,94.15,-39.05,32.86
54667,-0.07,-1.08,0.19,-1.97,89.73,-43.76,32.95
54677,-0.07,-1.09,0.20,-1.51,87.97,-46.49,33.05
54687,-0.08,-1.09,0.20,-0.98,88.85,-46.70,32.95
54697,-0.09,-1.09,0.23,3.30,89.56,-45.33,32.95
54707,-0.08,-1.07,0.21,7.34,92.79,-42.60,32.95
54717,-0.08,-1.07,0.17,8.99,95.45,-39.48,32.95
54727,-0.07,-1.06,0.16,9.13,96.08,-36.84,32.91
54737,-0.07,-1.05,0.16,7.91,95.59,-35.31,32.95
54747,-0.04,-1.05,0.15,4.87,95.48,-34.98,32.95
54757,-0.01,-1.06,0.16,3.57,95.69,-35.83,32.95
54767,0.00,-1.06,0.18,5.42,95.89,-37.59,33.00
54777,-0.00,-1.06,0.18,8.90,95.71,-39.08,32.95
54787,-0.00,-1.05,0.16,9.71,95.54,-40.34,32.91
54797,0.02,-1.05,0.13,7.56,95.79,-41.30,32.91
54807,0.03,-1.06,0.15,5.69,96.08,-42.37,32.91
54817,0.04,-1.06,0.18,7.18,99.44,-43.15,33.00
54827,0.05,-1.08,0.20,10.64,98.20,-43.15,32.91
54837,0.05,-1.08,0.20,14.49,101.82,-43.18,32.91
54847,0.07,-1.07,0.18,17.31,102.66,-42.87,33.00
54857,0.07,-1.06,0.18,19.13,104.70,-42.63,33.00
54867,0.07,-1.04,0.15,19.76,107.53,-42.75,32.91
54877,0.07,-1.04,0.14,18.87,108.50,-43.63,32.91
54887,0.07,-1.03,0.14,17.25,106.69,-45.94,33.00
54897,0.07,-1.02,0.12,14.47,104.96,-48.58,32.91
54907,0.07,-1.01,0.13,10.81,103.48,-50.55,33.00
54917,0.04,-1.00,0.14,8.17,104.12,-52.29,33.00
54927,0.04,-1.01,0.16,7.69,102.84,-53.10,33.00
54937,0.05,-1.01,0.16,7.95,102.49,-53.48,32.91
54947,0.09,-1.04,0.16,7.60,104.85,-53.83,32.95
54957,0.11,-1.07,0.21,9.01,108.61,-56.43,32.95
54967,0.13,-1.10,0.22,12.47,112.92,-59.63,32.86
54977,0.13,-1.10,0.22,15.76,114.18,-63.33,32.95
54987,0.10,-1.08,0.19,19.53,112.23,-65.74,32.95
54997,0.07,-1.05,0.16,19.25,109.66,-66.26,32.95
55007,0.05,-1.03,0.16,16.82,109.39,-63.44,32.95
55017,0.04,-1.02,0.15,15.13,111.37,-58.41,32.95
55027,0.05,-1.04,0.18,13.92,115.25,-52.08,32.95
55037,0.07,-1.06,0.20,13.59,120.06,-47.88,32.86
55047,0.08,-1.07,0.23,15.24,123.71,-45.66,32.86
55057,0.07,-1.08,0.24,17.47,124.72,-46.92,33.00
55067,0.06,-1.06,0.23,18.76,122.81,-50.05,32.95
55077,0.02,-1.03,0.20,18.31,116.56,-55.15,32.95
55087,0.01,-1.03,0.20,13.51,109.54,-60.41,32.95
55097,-0.03,-1.02,0.21,8.60,101.34,-65.15,33.00
55107,-0.04,-1.03,0.22,3.80,94.21,-65.33,33.09
55117,-0.04,-1.03,0.25,2.52,91.51,-62.41,32.91
55127,-0.01,-1.03,0.27,4.60,94.63,-57.02,33.00
55137,0.03,-1.04,0.30,8.90,96.18,-51.01,33.00
55147,0.07,-1.02,0.28,12.85,101.60,-47.57,33.00
55157,0.08,-1.02,0.29,16.78,103.82,-44.15,33.00
55167,0.10,-1.01,0.26,18.26,104.72,-43.53,33.00
55177,0.11,-1.00,0.23,15.74,102.44,-47.33,33.00
55187,0.08,-1.00,0.25,11.66,95.42,-54.60,32.91
55197,0.03,-0.99,0.25,7.59,89.18,-63.47,32.91
55207,-0.03,-0.97,0.23,4.43,79.71,-67.22,32.91
55217,-0.06,-0.96,0.21,-0.41,72.50,-65.66,33.00
55227,-0.06,-0.95,0.20,-4.96,75.59,-60.63,32.91
55237,-0.02,-0.96,0.21,-9.30,79.54,-50.50,33.00
55247,-0.01,-0.95,0.23,-13.04,88.44,-41.82,32.95
55257,0.01,-0.97,0.29,-13.47,90.76,-34.75,32.95
55267,0.04,-0.98,0.33,-12.85,94.75,-32.00,32.95
55277,0.03,-0.99,0.34,-12.06,89.22,-35.91,32.95
55287,0.02,-0.99,0.34,-12.26,77.56,-36.24,32.86
55297,0.08,-0.98,0.31,-17.01,74.03,-40.53,32.95
55307,0.03,-0.98,0.34,-19.13,70.76,-45.13,32.95
55317,0.01,-0.99,0.36,-16.64,61.91,-39.83,32.95
55327,0.05,-0.98,0.37,-14.66,67.15,-33.50,33.05
55337,0.07,-0.98,0.39,-11.54,77.39,-19.18,32.95
55347,0.08,-0.97,0.38,-9.45,92.55,-8.11,32.95
55357,0.06,-0.98,0.40,-8.53,99.77,-2.87,32.95
55367,0.06,-1.02,0.43,-8.21,98.00,-5.69,32.95
55377,0.05,-1.05,0.47,-4.82,90.17,-15.69,32.95
55387,0.07,-1.06,0.47,-1.57,75.89,-26.47,33.00
55397,0.07,-1.06,0.46,-1.77,62.05,-41.18,32.95
55407,0.05,-1.06,0.46,-0.23,47.66,-50.84,32.95
55417,0.02,-1.03,0.49,-1.02,47.31,-51.86,32.91
55427,-0.01,-1.00,0.44,0.12,50.20,-47.63,33.00
55437,-0.05,-0.99,0.42,1.28,57.13,-38.03,32.91
55447,-0.08,-0.94,0.40,2.89,64.69,-27.10,32.91
55457,-0.07,-0.94,0.42,4.46,67.83,-21.10,32.91
55467,-0.09,-0.94,0.42,5.82,62.73,-20.82,33.09
55477,-0.02,-0.94,0.39,4.21,54.08,-22.99,33.00
55487,0.05,-0.96,0.40,-1.31,44.82,-33.11,33.00
55497,0.05,-0.98,0.46,-5.34,31.59,-44.72,33.00
55507,0.05,-0.99,0.47,-5.31,17.77,-52.23,32.91
55517,0.10,-0.97,0.44,-5.94,13.68,-56.60,33.00
55527,0.11,-0.94,0.44,-5.33,14.69,-53.37,33.09
55537,0.13,-0.92,0.42,-3.01,18.61,-42.41,32.91
55547,0.23,-0.94,0.41,-5.68,27.86,-34.34,33.00
55557,0.23,-1.01,0.47,-10.85,33.13,-37.97,33.00
55567,0.20,-1.07,0.57,-10.66,24.18,-50.00,33.00
55577,0.16,-1.13,0.63,-8.69,5.34,-68.85,32.91
55587,-0.05,-1.17,0.62,-3.02,-16.98,-88.98,32.95
55597,-0.31,-1.05,0.58,3.42,-19.71,-81.69,33.05
55607,-0.41,-0.93,0.46,7.56,-13.71,-55.79,33.05
55617,-0.53,-0.87,0.36,6.43,3.97,-28.50,33.05
55627,-0.52,-0.79,0.31,4.02,12.69,2.09,32.95
55637,-0.36,-0.85,0.30,-8.27,15.97,15.60,33.05
55647,-0.21,-0.89,0.38,-15.56,7.86,16.08,33.05
55657,-0.06,-0.89,0.43,-14.56,-1.76,9.40,32.95
55667,0.11,-0.85,0.43,-8.99,-13.39,6.53,32.95
55677,0.30,-0.84,0.38,-5.04,-19.11,4.18,32.95
55687,0.41,-0.86,0.39,-4.75,-19.91,1.53,32.95
55697,0.43,-0.90,0.47,-3.42,-20.24,-3.15,33.05
55707,0.37,-0.92,0.49,1.10,-23.33,-7.62,32.95
55717,0.36,-0.95,0.48,3.48,-19.82,-7.56,33.00
55727,0.29,-0.98,0.48,-0.73,-15.50,-7.44,33.05
55737,0.21,-1.01,0.53,-3.53,-12.38,-7.11,32.95
55747,0.16,-1.01,0.54,-3.28,-9.98,-5.91,32.95
55757,0.15,-1.01,0.51,-2.31,-7.08,-4.41,33.00
55767,0.15,-1.01,0.51,-1.04,-4.52,-2.87,33.00
55777,0.17,-0.98,0.48,-0.99,-2.75,-1.10,33.00
55787,0.19,-0.98,0.49,-2.76,-1.21,0.96,33.00
55797,0.24,-0.97,0.50,-3.85,-0.40,1.94,33.00
55807,0.26,-0.98,0.49,-3.82,0.05,1.40,33.00
55817,0.28,-0.96,0.48,-3.08,1.15,1.02,32.91
55827,0.29,-0.93,0.46,-2.90,2.60,0.35,32.91
55837,0.30,-0.89,0.44,-3.24,4.96,-0.43,32.91
55847,0.27,-0.86,0.41,-3.80,6.84,-0.67,33.00
55857,0.25,-0.86,0.40,-5.56,7.02,0.05,33.00
55867,0.23,-0.87,0.40,-8.24,5.51,0.85,33.00
55877,0.24,-0.88,0.42,-11.04,5.08,0.85,33.00
55887,0.23,-0.91,0.45,-11.25,4.63,0.78,33.09
55897,0.23,-0.92,0.47,-9.83,3.82,1.63,33.00
55907,0.24,-0.92,0.47,-7.66,3.79,3.45,33.00
55917,0.24,-0.94,0.45,-6.90,4.50,3.13,33.00
55927,0.22,-0.95,0.47,-6.87,3.45,1.69,32.95
55937,0.20,-0.95,0.47,-6.40,0.17,-0.60,32.95
55947,0.19,-0.96,0.46,-6.34,-2.55,-2.98,32.95
55957,0.14,-0.96,0.46,-7.83,-4.61,-3.79,33.05
55967,0.10,-0.96,0.45,-9.21,-5.33,-1.69,32.95
55977,0.05,-0.97,0.45,-10.85,-5.05,3.92,32.95
55987,0.01,-0.98,0.46,-11.48,-4.70,11.40,32.95
55997,-0.03,-1.00,0.49,-9.28,-5.21,21.05,33.05
56007,-0.03,-1.00,0.50,-3.63,-8.67,29.88,33.05
56017,0.00,-1.00,0.52,3.34,-11.02,34.31,33.05
56027,0.04,-0.97,0.47,4.61,-11.63,35.02,32.95
56037,-0.01,-0.93,0.43,1.19,-13.77,37.82,33.05
56047,-0.04,-0.91,0.41,-2.40,-12.05,39.66,33.00
56057,-0.12,-0.90,0.43,-1.79,-14.40,41.04,32.95
56067,-0.19,-0.89,0.46,2.64,-21.15,44.21,32.91
56077,-0.20,-0.82,0.41,8.96,-28.08,53.07,32.91
56087,-0.10,-0.73,0.33,12.64,-32.03,67.68,33.00
56097,0.05,-0.69,0.23,6.55,-28.89,76.95,33.00
56107,0.17,-0.72,0.19,-7.45,-22.47,77.57,33.00
56117,0.22,-0.77,0.22,-25.07,-19.31,67.33,33.00
56127,0.19,-0.85,0.35,-36.18,-27.30,48.75,33.00
56137,0.13,-0.91,0.39,-38.84,-44.73,24.95,33.09
56147,0.04,-0.97,0.43,-34.29,-65.24,3.63,33.00
56157,-0.04,-0.97,0.40,-28.75,-79.89,-4.05,33.00
56167,-0.03,-0.97,0.34,-27.34,-82.67,2.75,33.00
56177,0.04,-1.00,0.32,-29.30,-73.71,20.90,33.00
56187,0.11,-1.07,0.36,-31.15,-58.55,35.89,32.91
56197,0.12,-1.12,0.43,-30.82,-47.40,39.62,32.91
56207,0.04,-1.19,0.53,-25.02,-51.47,31.83,33.05
56217,-0.04,-1.21,0.58,-15.28,-67.27,14.79,32.95
56227,-0.12,-1.20,0.56,-5.56,-88.81,-7.11,33.05
56237,-0.21,-1.15,0.52,2.56,-108.67,-22.56,32.95
56247,-0.29,-1.09,0.43,9.33,-123.04,-25.16,33.05
56257,-0.27,-1.04,0.31,14.23,-125.16,-7.88,33.05
56267,-0.08,-0.98,0.20,12.20,-107.30,24.35,33.05
56277,0.10,-0.95,0.17,5.59,-80.47,53.28,32.95
56287,0.19,-0.98,0.23,-1.37,-59.30,70.34,33.05
56297,0.22,-1.00,0.32,-4.58,-54.67,72.96,33.00
56307,0.22,-1.02,0.37,-3.85,-61.82,60.92,33.05
56317,0.17,-1.03,0.40,-2.05,-79.95,38.93,32.95
56327,0.07,-1.03,0.39,1.54,-102.87,16.26,32.95
56337,0.03,-1.02,0.36,3.36,-121.62,-0.82,33.00
56347,-0.02,-1.01,0.32,5.85,-130.78,-10.55,32.86
56357,-0.07,-1.03,0.31,9.44,-132.21,-9.79,33.00
56367,-0.07,-1.06,0.29,13.53,-125.82,-0.18,33.00
56377,-0.08,-1.06,0.28,17.66,-115.40,14.37,32.91
56387,-0.09,-1.07,0.25,20.85,-108.92,30.00,33.00
56397,-0.10,-1.08,0.21,18.46,-109.39,42.90,33.00
56407,-0.05,-1.12,0.18,11.44,-114.41,49.01,33.00
56417,-0.01,-1.13,0.20,6.24,-124.84,47.13,33.00
56427,0.01,-1.14,0.21,2.81,-137.54,40.55,32.91
56437,0.04,-1.15,0.20,1.53,-152.37,33.18,33.00
56447,0.09,-1.16,0.19,-0.46,-162.20,26.78,33.00
56457,0.14,-1.15,0.21,-0.14,-164.21,19.57,33.00
56467,0.20,-1.15,0.24,6.08,-161.47,13.88,33.09
56477,0.23,-1.15,0.26,14.66,-156.37,10.35,33.00
56487,0.24,-1.11,0.24,27.39,-148.98,10.18,33.05
56497,0.22,-1.02,0.17,38.99,-142.02,13.15,33.05
56507,0.24,-0.95,0.08,41.45,-136.87,18.47,32.95
56517,0.25,-0.90,0.02,35.15,-133.60,24.98,33.05
56527,0.26,-0.86,-0.00,29.02,-132.37,31.01,32.95
56537,0.29,-0.85,-0.01,22.32,-130.52,36.14,32.95
56547,0.31,-0.87,0.01,15.02,-129.24,38.09,32.86
56557,0.35,-0.90,0.04,10.23,-127.85,39.11,33.05
56567,0.35,-0.92,0.07,8.47,-126.58,39.25,32.95
56577,0.33,-0.92,0.06,8.44,-126.40,40.55,32.95
56587,0.33,-0.95,0.08,7.39,-126.14,42.21,32.91
56597,0.33,-0.95,0.09,7.60,-124.92,44.12,32.95
56607,0.32,-0.97,0.11,9.42,-122.90,46.08,32.95
56617,0.30,-0.98,0.10,12.43,-118.98,47.82,32.95
56627,0.28,-0.96,0.07,15.31,-114.53,50.63,33.09
56637,0.26,-0.97,0.07,16.03,-113.16,53.95,33.00
56647,0.29,-0.98,0.06,13.59,-110.05,56.70,33.00
56657,0.30,-1.00,0.09,12.60,-110.70,55.91,32.91
56667,0.32,-1.03,0.09,10.75,-110.78,51.50,33.00
56677,0.31,-1.06,0.10,9.05,-113.40,45.45,32.91
56687,0.31,-1.06,0.12,9.31,-116.38,39.33,33.00
56697,0.31,-1.07,0.13,9.66,-117.42,33.68,32.91
56707,0.29,-1.09,0.14,11.80,-117.83,28.61,33.00
56717,0.29,-1.06,0.13,17.74,-116.32,25.68,33.00
56727,0.26,-1.02,0.05,20.61,-111.60,25.22,33.00
56737,0.22,-1.01,0.03,17.13,-109.13,29.10,33.00
56747,0.21,-1.00,0.02,12.58,-107.42,35.51,32.91
56757,0.22,-1.00,0.02,8.56,-103.88,42.58,33.00
56767,0.25,-1.04,0.04,5.42,-97.33,47.91,33.00
56777,0.25,-1.03,0.06,4.06,-91.95,52.18,32.91
56787,0.26,-1.03,0.07,4.05,-87.74,54.11,33.05
56797,0.25,-1.03,0.07,3.10,-85.57,53.40,32.95
56807,0.24,-1.02,0.09,2.00,-86.06,51.16,32.95
56817,0.22,-1.03,0.10,1.97,-88.21,47.13,33.05
56827,0.25,-1.02,0.09,-0.31,-90.90,41.34,32.95
56837,0.23,-1.04,0.10,-3.48,-95.50,35.53,32.95
56847,0.22,-1.03,0.10,-6.31,-99.45,31.25,32.95
56857,0.21,-1.03,0.11,-8.61,-99.83,29.34,33.05
56867,0.16,-1.04,0.14,-9.89,-98.75,30.14,32.95
56877,0.17,-1.06,0.15,-8.75,-97.36,33.50,32.91
56887,0.18,-1.06,0.13,-6.81,-92.20,38.99,33.05
56897,0.19,-1.08,0.15,-4.84,-87.42,45.10,32.95
56907,0.21,-1.09,0.15,-1.59,-80.96,50.09,33.05
56917,0.22,-1.10,0.14,0.78,-76.38,52.58,32.91
56927,0.24,-1.11,0.14,0.50,-74.58,51.76,33.05
56937,0.24,-1.12,0.15,-0.21,-75.34,48.23,32.95
56947,0.25,-1.13,0.16,-0.64,-78.12,42.79,33.00
56957,0.27,-1.12,0.16,0.11,-80.21,36.00,33.09
56967,0.28,-1.12,0.17,1.31,-81.94,28.53,33.00
56977,0.28,-1.12,0.18,1.92,-83.66,21.73,33.00
56987,0.26,-1.11,0.18,3.39,-84.09,16.90,33.00
56997,0.24,-1.12,0.19,5.45,-82.78,15.08,33.00
57007,0.22,-1.12,0.19,7.77,-80.20,15.63,32.91
57017,0.21,-1.12,0.20,10.34,-77.04,18.85,33.00
57027,0.20,-1.15,0.20,12.79,-73.30,23.08,32.91
57037,0.21,-1.16,0.21,15.39,-68.72,28.64,32.91
57047,0.18,-1.19,0.24,18.12,-64.27,33.79,33.00
57057,0.16,-1.20,0.26,22.21,-62.87,38.34,32.91
57067,0.20,-1.18,0.26,25.50,-62.32,37.21,33.09
57077,0.26,-1.15,0.27,28.24,-64.00,28.46,32.91
57087,0.30,-1.10,0.27,30.81,-67.86,12.82,33.00
57097,0.30,-1.02,0.23,32.53,-71.53,-4.56,32.91
57107,0.30,-0.95,0.18,33.47,-75.40,-18.55,33.00
57117,0.26,-0.89,0.12,29.45,-78.18,-25.98,33.00
57127,0.22,-0.86,0.07,21.69,-82.40,-26.18,33.00
57137,0.19,-0.85,0.07,11.27,-78.34,-20.69,33.05
57147,0.17,-0.87,0.11,6.24,-71.57,-11.91,32.95
57157,0.15,-0.89,0.16,5.36,-63.25,-1.66,33.05
57167,0.13,-0.88,0.19,7.19,-55.73,9.31,33.05
57177,0.15,-0.87,0.19,8.66,-49.95,18.49,32.95
57187,0.16,-0.87,0.18,7.02,-46.60,24.31,32.95
57197,0.17,-0.85,0.14,3.18,-43.51,28.98,32.95
57207,0.17,-0.87,0.12,-2.55,-41.65,33.56,33.05
57217,0.17,-0.90,0.13,-10.15,-40.96,37.36,32.95
57227,0.17,-0.93,0.15,-15.45,-41.48,39.71,33.05
57237,0.19,-0.96,0.17,-19.47,-40.67,40.08,32.95
57247,0.20,-0.98,0.22,-21.37,-41.51,38.84,33.00
57257,0.20,-1.00,0.25,-20.81,-42.70,35.86,33.05
57267,0.21,-1.01,0.26,-18.81,-43.24,34.03,33.05
57277,0.21,-1.02,0.26,-16.44,-41.50,32.89,32.95
57287,0.20,-1.02,0.23,-15.85,-37.85,32.27,33.00
57297,0.19,-1.03,0.24,-15.40,-36.43,32.50,33.05
57307,0.18,-1.05,0.25,-16.72,-34.55,30.90,33.09
57317,0.18,-1.06,0.27,-14.96,-35.02,28.24,33.00
57327,0.16,-1.05,0.27,-12.43,-35.37,25.21,33.00
57337,0.15,-1.04,0.26,-9.11,-35.97,22.96,32.91
57347,0.16,-1.02,0.23,-7.08,-34.95,21.86,33.00
57357,0.15,-1.04,0.23,-8.90,-33.88,20.09,32.91
57367,0.12,-1.07,0.25,-10.53,-35.19,16.81,33.00
57377,0.09,-1.10,0.28,-9.53,-38.69,12.32,33.00
57387,0.07,-1.13,0.29,-8.08,-42.82,7.16,33.00
57397,0.06,-1.13,0.33,-5.39,-46.40,3.73,33.09
57407,0.02,-1.10,0.35,-0.29,-48.37,2.98,33.00
57417,0.03,-1.03,0.30,5.02,-43.97,6.15,33.00
57427,0.00,-0.97,0.28,8.06,-39.13,12.29,33.00
57437,-0.01,-0.94,0.20,9.51,-36.70,21.48,32.91
57447,0.02,-0.90,0.11,4.00,-31.60,30.44,32.91
57457,0.05,-0.92,0.10,-6.78,-31.16,35.83,33.00
57467,0.10,-0.95,0.13,-16.56,-34.31,34.72,33.00
57477,0.13,-0.98,0.19,-20.14,-40.69,27.59,33.05
57487,0.15,-1.00,0.23,-19.98,-46.27,18.81,32.95
57497,0.14,-1.00,0.22,-18.41,-50.11,13.11,33.05
57507,0.13,-1.00,0.21,-16.98,-49.76,13.66,32.95
57517,0.13,-0.99,0.19,-17.50,-46.85,16.02,32.95
57527,0.13,-1.00,0.19,-19.01,-43.31,20.11,32.86
57537,0.14,-1.01,0.19,-19.73,-40.44,24.85,32.95
57547,0.17,-1.02,0.19,-20.02,-38.37,26.64,33.05
57557,0.20,-1.03,0.21,-20.08,-36.93,24.29,32.95
57567,0.21,-1.02,0.21,-19.62,-36.49,19.89,33.05
57577,0.22,-1.01,0.20,-17.65,-37.60,14.64,33.05
57587,0.22,-1.01,0.20,-17.28,-37.47,8.82,33.05
57597,0.19,-1.01,0.21,-16.69,-37.69,5.56,32.95
57607,0.17,-1.00,0.20,-15.07,-37.40,5.80,33.05
57617,0.16,-1.00,0.20,-13.88,-33.77,7.83,33.00
57627,0.16,-0.99,0.20,-12.46,-30.31,9.40,33.05
57637,0.16,-1.00,0.20,-11.51,-28.38,10.61,32.95
57647,0.15,-1.00,0.20,-11.36,-27.47,10.90,32.91
57657,0.14,-1.00,0.21,-11.13,-26.89,10.41,33.00
57667,0.13,-0.99,0.21,-10.84,-27.30,10.81,33.00
57677,0.13,-1.00,0.18,-11.83,-26.64,10.95,33.09
57687,0.12,-1.00,0.19,-13.56,-26.27,10.99,32.91
57697,0.13,-1.00,0.18,-16.24,-25.48,10.12,33.00
57707,0.15,-1.00,0.19,-18.02,-25.47,7.54,32.91
57717,0.15,-1.02,0.20,-18.56,-25.10,3.91,33.09
57727,0.15,-1.03,0.22,-17.51,-26.00,0.52,33.00
57737,0.13,-1.02,0.22,-14.84,-25.07,1.30,33.00
57747,0.11,-1.01,0.20,-11.71,-20.11,6.90,33.00
57757,0.12,-1.03,0.18,-10.56,-13.28,12.58,32.91
57767,0.13,-1.04,0.17,-10.69,-9.08,14.84,33.00
57777,0.14,-1.07,0.19,-12.26,-7.80,14.38,33.00
57787,0.14,-1.08,0.19,-12.27,-9.10,10.95,33.00
57797,0.16,-1.09,0.23,-11.34,-11.54,3.63,32.91
57807,0.16,-1.08,0.22,-9.57,-13.98,-2.89,33.05
57817,0.14,-1.06,0.21,-8.29,-16.49,-5.91,33.05
57827,0.13,-1.05,0.18,-6.90,-14.23,-4.87,32.95
57837,0.12,-1.04,0.17,-6.82,-10.18,-1.10,32.95
57847,0.13,-1.04,0.17,-7.91,-6.06,3.28,33.05
57857,0.15,-1.04,0.17,-7.71,-2.93,5.24,32.95
57867,0.16,-1.06,0.19,-6.41,-1.68,2.95,33.05
57877,0.14,-1.07,0.21,-4.76,-4.24,-1.95,33.05
57887,0.12,-1.05,0.20,-2.46,-6.23,-4.29,33.14
57897,0.11,-1.02,0.16,-2.34,-5.04,-4.34,32.95
57907,0.09,-1.01,0.15,-4.26,-2.85,-4.08,33.05
57917,0.06,-1.02,0.16,-5.51,-3.47,-2.61,32.86
57927,0.05,-1.02,0.16,-6.79,-4.38,-0.58,32.86
57937,0.06,-1.03,0.16,-7.59,-4.14,1.69,32.95
57947,0.07,-1.03,0.15,-8.21,-3.48,2.95,33.00
57957,0.07,-1.04,0.18,-7.71,-3.28,3.86,33.05
57967,0.09,-1.04,0.18,-6.47,-3.71,4.67,33.00
57977,0.09,-1.04,0.17,-5.62,-3.34,5.19,33.00
57987,0.10,-1.05,0.17,-6.32,-2.81,3.76,33.00
57997,0.10,-1.04,0.18,-7.25,-4.09,1.05,33.00
58007,0.09,-1.04,0.19,-6.70,-5.57,-0.72,32.91
58017,0.10,-1.04,0.17,-5.82,-4.12,-1.86,33.00
58027,0.09,-1.05,0.19,-5.47,-4.89,-1.95,33.00
58037,0.08,-1.03,0.18,-5.97,-3.65,-1.30,32.91
58047,0.07,-1.04,0.17,-5.16,-2.99,0.95,33.00
58057,0.09,-1.04,0.18,-5.25,-1.74,2.23,33.00
58067,0.09,-1.05,0.18,-5.31,-0.92,1.77,33.00
58077,0.08,-1.04,0.19,-4.21,-1.40,0.89,33.00
58087,0.08,-1.04,0.19,-1.71,-1.65,-0.08,33.00
58097,0.09,-1.03,0.16,0.12,-1.02,-0.60,33.00
58107,0.10,-1.02,0.14,-1.45,0.09,-1.48,33.00
58117,0.09,-1.01,0.13,-3.82,0.60,-3.18,33.05
58127,0.08,-1.01,0.15,-4.89,0.26,-5.57,33.05
58137,0.07,-1.00,0.16,-5.31,-2.32,-7.08,33.05
58147,0.05,-1.02,0.16,-4.11,-4.20,-6.85,33.05
58157,0.05,-1.00,0.14,-3.30,-3.71,-5.47,33.05
58167,0.04,-1.00,0.14,-3.71,-1.86,-3.48,33.05
58177,0.04,-1.00,0.15,-3.63,-2.12,-1.30,32.95
58187,0.06,-1.00,0.15,-4.21,-1.57,0.26,32.95
58197,0.06,-1.01,0.14,-6.15,-1.91,0.73,32.95
58207,0.07,-1.02,0.17,-6.40,-1.40,0.87,33.05
58217,0.07,-1.02,0.16,-5.22,-0.98,1.71,32.95
58227,0.08,-1.03,0.16,-4.37,-0.08,2.56,32.95
58237,0.08,-1.02,0.16,-4.92,1.88,3.44,32.91
58247,0.07,-1.03,0.17,-4.03,2.14,4.38,32.95
58257,0.09,-1.03,0.17,-3.05,2.63,4.56,33.00
58267,0.10,-1.02,0.15,-3.15,2.96,3.60,33.00
58277,0.10,-1.01,0.14,-5.21,3.07,1.31,33.00
58287,0.08,-1.01,0.15,-5.63,1.45,-0.43,33.00
58297,0.07,-1.01,0.15,-6.06,1.30,-0.87,33.00
58307,0.07,-1.01,0.15,-6.24,1.97,0.17,33.00
58317,0.07,-1.03,0.16,-5.73,3.05,1.60,33.00
58327,0.07,-1.03,0.16,-5.47,3.88,2.56,33.09
58337,0.08,-1.04,0.17,-3.54,4.09,1.86,33.00
58347,0.06,-1.04,0.19,-1.34,2.96,-0.32,32.91
58357,0.06,-1.02,0.16,-0.14,2.11,-1.76,33.00
58367,0.06,-1.01,0.16,-1.79,0.85,-3.83,33.00
58377,0.05,-1.00,0.14,-2.96,-0.29,-5.08,32.91
58387,0.04,-1.00,0.13,-5.44,-0.49,-4.79,33.00
58397,0.03,-1.01,0.14,-7.98,0.20,-1.97,33.05
58407,0.02,-1.03,0.16,-9.33,0.78,1.07,33.05
58417,0.03,-1.05,0.18,-8.60,1.42,3.86,33.05
58427,0.04,-1.06,0.20,-6.66,2.66,6.17,33.05
58437,0.05,-1.06,0.21,-3.60,3.53,7.98,33.05
58447,0.07,-1.06,0.19,-0.99,5.18,8.89,32.95
58457,0.07,-1.05,0.17,-1.33,7.47,9.53,32.95
58467,0.08,-1.04,0.19,-1.36,7.71,9.62,33.05
58477,0.09,-1.04,0.17,-1.89,8.18,9.47,32.86
58487,0.10,-1.04,0.17,-2.18,7.94,7.62,33.00
58497,0.10,-1.05,0.17,-2.89,6.72,3.59,32.86
58507,0.08,-1.05,0.19,-2.60,2.90,-1.31,33.05
58517,0.06,-1.04,0.18,-1.91,-0.26,-5.15,33.05
58527,0.06,-1.03,0.17,-1.25,-0.98,-6.17,33.00
58537,0.03,-1.02,0.17,-1.89,-0.38,-4.72,33.00
58547,0.01,-1.02,0.18,-2.82,0.29,-1.33,33.00
58557,0.01,-1.02,0.16,-3.28,0.61,2.73,33.00
58567,0.03,-1.03,0.15,-4.58,1.07,6.18,33.00
58577,0.06,-1.05,0.17,-5.91,1.89,6.89,33.00
58587,0.07,-1.06,0.19,-5.04,1.48,5.04,33.00
58597,0.08,-1.06,0.19,-3.30,0.44,2.18,33.00
58607,0.09,-1.05,0.18,-2.58,-0.34,-0.24,32.91
58617,0.08,-1.05,0.17,-2.27,0.20,-1.79,32.91
58627,0.07,-1.04,0.18,-3.07,0.29,-2.73,33.00
58637,0.06,-1.04,0.18,-2.67,0.72,-2.50,33.00
58647,0.06,-1.04,0.19,-1.42,1.05,-1.45,32.91
58657,0.06,-1.04,0.17,-0.50,2.72,-0.12,33.00
58667,0.06,-1.03,0.16,-0.79,4.58,0.49,33.00
58677,0.06,-1.02,0.16,-0.82,4.67,0.56,32.95
58687,0.07,-1.02,0.17,-1.62,3.98,0.02,32.95
58697,0.08,-1.02,0.15,-1.45,4.15,-0.24,32.95
58707,0.08,-1.03,0.15,-2.21,5.24,-1.31,33.05
58717,0.08,-1.02,0.16,-2.63,6.18,-2.40,33.05
58727,0.07,-1.03,0.18,-1.54,5.97,-3.11,32.95
58737,0.08,-1.03,0.16,0.60,8.40,-3.57,32.95
58747,0.07,-1.02,0.14,1.82,11.07,-3.27,32.95
58757,0.04,-0.99,0.10,0.03,13.25,-2.96,32.95
58767,0.08,-1.01,0.15,-1.44,10.96,-3.86,32.95
58777,0.08,-1.03,0.18,0.89,11.97,-5.22,33.09
58787,0.07,-1.03,0.19,5.21,8.73,-5.66,33.05
58797,0.04,-1.04,0.19,8.79,9.22,-4.02,32.95
58807,-0.01,-1.04,0.28,13.88,-0.40,2.02,33.05
58817,0.03,-1.02,0.15,14.14,14.14,7.28,33.00
58827,0.07,-1.03,0.18,11.15,16.31,9.60,33.05
58837,0.12,-1.04,0.17,5.63,18.34,7.11,32.91
58847,0.09,-1.06,0.23,0.98,18.41,0.11,33.00
58857,0.04,-1.04,0.25,2.06,13.50,-6.92,33.00
58867,0.00,-1.03,0.23,5.05,7.89,-10.61,33.00
58877,-0.01,-1.01,0.20,3.21,4.20,-11.11,33.09
58887,-0.03,-1.00,0.20,1.22,3.34,-9.47,33.00
