Timestamp,Acce_X,Acce_Y,Acce_Z,Gyro_X,Gyro_Y,Gyro_Z,Temp
78477,0.07,-1.02,0.12,-7.02,2.09,6.67,30.93
78487,0.07,-1.03,0.12,-7.08,3.02,7.79,30.84
78497,0.07,-1.03,0.12,-7.82,4.46,7.40,30.84
78507,0.07,-1.05,0.14,-8.32,4.17,6.47,30.93
78517,0.08,-1.07,0.13,-8.79,3.28,5.18,30.84
78527,0.08,-1.08,0.15,-9.44,3.37,3.34,30.88
78537,0.08,-1.09,0.17,-9.94,2.96,1.30,30.88
78547,0.08,-1.09,0.20,-8.09,1.95,-0.44,30.88
78557,0.09,-1.09,0.19,-5.69,2.20,-1.73,30.98
78567,0.08,-1.10,0.19,-3.39,2.72,-3.02,30.93
78577,0.08,-1.08,0.20,-0.55,2.87,-3.19,30.88
78587,0.08,-1.07,0.19,2.21,2.99,-2.52,30.93
78597,0.08,-1.06,0.17,3.28,4.14,-2.08,30.84
78607,0.09,-1.05,0.17,3.69,5.28,-1.68,30.84
78617,0.09,-1.03,0.17,3.54,5.69,-1.15,30.93
78627,0.10,-1.03,0.18,4.21,5.39,-0.75,30.84
78637,0.10,-1.01,0.17,4.08,6.56,0.06,30.84
78647,0.11,-0.99,0.16,3.92,6.64,1.48,30.79
78657,0.11,-0.98,0.15,3.07,6.82,3.16,30.88
78667,0.12,-0.97,0.16,0.89,3.98,5.95,30.88
78677,0.14,-0.95,0.17,-2.12,0.82,7.95,30.88
78687,0.17,-0.92,0.16,-4.11,1.71,10.47,30.79
78697,0.19,-0.92,0.22,-8.15,3.10,9.74,30.84
78707,0.15,-0.93,0.27,-11.54,0.00,4.47,30.88
78717,0.10,-0.92,0.29,-13.02,-1.54,2.53,30.93
78727,0.05,-0.96,0.28,-8.11,-9.15,5.63,30.84
78737,0.03,-1.00,0.21,-3.68,-10.31,15.25,30.93
78747,0.04,-1.04,0.18,-1.11,-3.36,32.84,30.84
78757,0.06,-1.08,0.16,-0.44,7.28,55.37,30.84
78767,0.14,-1.11,0.17,1.97,21.56,80.11,30.88
78777,0.28,-1.15,0.18,7.45,38.38,100.34,30.98
78787,0.41,-1.19,0.20,15.68,56.64,111.82,30.88
78797,0.52,-1.21,0.24,25.50,64.23,114.55,30.88
78807,0.60,-1.26,0.24,32.76,73.39,107.80,30.88
78817,0.69,-1.26,0.20,35.91,80.44,92.06,30.79
78827,0.73,-1.26,0.17,37.68,82.52,70.43,30.84
78837,0.73,-1.25,0.13,40.02,82.00,47.16,30.93
78847,0.73,-1.24,0.06,41.85,81.39,24.67,30.93
78857,0.72,-1.20,-0.03,40.00,83.28,4.27,30.84
78867,0.68,-1.17,-0.10,35.74,85.71,-12.61,30.84
78877,0.66,-1.15,-0.16,27.47,89.88,-27.45,30.93
78887,0.61,-1.13,-0.19,15.66,95.76,-38.82,30.88
78897,0.57,-1.13,-0.15,8.18,99.60,-47.02,30.88
78907,0.55,-1.14,-0.16,4.06,109.39,-53.02,30.79
78917,0.53,-1.15,-0.12,2.53,119.18,-57.40,30.88
78927,0.50,-1.16,-0.10,5.33,126.85,-62.00,30.88
78937,0.48,-1.15,-0.14,8.96,137.59,-64.73,30.88
78947,0.45,-1.12,-0.19,11.54,148.17,-67.44,30.84
78957,0.42,-1.10,-0.25,10.82,155.71,-69.36,30.84
78967,0.38,-1.10,-0.32,5.97,163.10,-73.62,30.84
78977,0.33,-1.09,-0.38,-1.02,167.69,-76.89,30.84
78987,0.29,-1.01,-0.44,-11.40,168.60,-79.53,30.93
78997,0.23,-0.94,-0.53,-23.25,169.76,-81.07,30.84
79007,0.17,-0.86,-0.57,-36.40,171.73,-77.08,30.88
79017,0.11,-0.79,-0.63,-47.25,175.25,-66.56,30.98
79027,0.08,-0.77,-0.66,-57.83,179.56,-50.84,30.98
79037,0.10,-0.87,-0.60,-70.20,185.07,-41.33,30.88
79047,0.07,-1.00,-0.47,-82.00,189.27,-37.54,30.84
79057,0.08,-1.07,-0.32,-84.92,188.53,-39.15,30.88
79067,0.05,-1.08,-0.23,-78.81,189.68,-40.43,30.84
79077,-0.05,-1.03,-0.22,-63.89,194.12,-36.72,30.93
79087,-0.16,-0.97,-0.28,-49.73,197.73,-28.72,30.84
79097,-0.27,-0.89,-0.38,-42.11,206.21,-12.82,30.93
79107,-0.35,-0.88,-0.44,-40.67,209.88,7.40,30.84
79117,-0.36,-0.94,-0.46,-44.34,210.46,25.59,30.84
79127,-0.36,-0.96,-0.40,-51.30,208.17,41.24,30.88
79137,-0.31,-1.03,-0.34,-49.86,207.74,55.07,30.88
79147,-0.24,-1.08,-0.28,-38.92,211.88,63.92,30.88
79157,-0.18,-1.10,-0.29,-23.54,215.83,68.09,30.79
79167,-0.08,-1.09,-0.34,-9.10,220.72,67.74,30.88
79177,0.00,-1.10,-0.40,1.02,219.88,50.78,30.84
79187,0.02,-1.09,-0.48,-4.64,212.95,18.64,30.93
79197,-0.05,-1.10,-0.52,-17.36,198.38,-9.42,30.84
79207,-0.12,-1.14,-0.50,-22.35,186.60,-26.29,30.84
79217,-0.11,-1.17,-0.54,-22.18,190.32,-34.55,30.93
79227,-0.16,-1.14,-0.51,-19.63,201.07,-39.48,30.93
79237,-0.13,-1.14,-0.54,-16.20,206.06,-36.64,30.74
79247,-0.13,-1.12,-0.53,-4.56,231.34,-32.29,30.98
79257,-0.13,-1.13,-0.60,5.01,226.92,-34.56,30.88
79267,-0.14,-1.12,-0.61,1.86,223.53,-44.35,30.88
79277,-0.17,-1.16,-0.66,-9.31,205.79,-59.80,30.88
79287,-0.20,-1.18,-0.63,-27.34,205.73,-77.59,30.79
79297,-0.34,-1.16,-0.48,-36.34,193.91,-86.38,30.88
79307,-0.39,-1.13,-0.46,-34.24,180.93,-85.53,30.84
79317,-0.39,-1.08,-0.44,-31.39,182.00,-78.43,30.84
79327,-0.41,-1.06,-0.40,-18.44,182.15,-62.09,30.84
79337,-0.35,-1.03,-0.45,-9.62,194.27,-41.28,30.84
79347,-0.25,-1.05,-0.46,-2.12,209.60,-23.62,30.84
79357,-0.16,-1.05,-0.49,1.22,221.10,-13.19,30.84
79367,-0.12,-1.04,-0.48,2.72,223.63,-10.64,30.93
79377,-0.08,-1.05,-0.47,5.01,217.44,-13.71,30.88
79387,-0.02,-1.02,-0.45,7.05,203.86,-22.79,30.79
79397,0.04,-1.01,-0.50,4.35,191.01,-37.01,30.88
79407,0.06,-1.03,-0.50,-4.26,185.82,-53.86,30.88
79417,0.08,-1.06,-0.36,-10.12,180.05,-71.31,30.88
79427,0.10,-1.09,-0.26,-7.40,174.69,-88.99,30.79
79437,0.09,-1.13,-0.20,1.19,174.67,-105.88,30.84
79447,0.04,-1.13,-0.16,13.45,169.24,-118.21,30.93
79457,-0.01,-1.16,-0.11,26.31,160.09,-123.76,30.84
79467,-0.06,-1.14,-0.15,29.47,149.40,-124.44,30.93
79477,-0.10,-1.10,-0.28,23.45,142.26,-117.39,30.93
79487,-0.11,-1.06,-0.33,14.98,140.20,-103.34,30.93
79497,-0.09,-1.01,-0.38,6.27,143.51,-84.76,30.88
79507,-0.07,-0.99,-0.39,-8.43,144.44,-68.38,30.88
79517,-0.02,-1.01,-0.30,-22.09,144.44,-52.67,30.79
79527,0.09,-0.99,-0.15,-49.34,163.05,-38.11,30.98
79537,0.15,-0.75,0.19,-64.09,252.40,-8.81,30.88
79547,-0.03,-1.13,0.21,-42.64,215.82,-19.59,30.88
79557,-0.09,-1.15,0.28,-39.28,210.78,-13.76,30.88
79567,-0.09,-1.12,0.01,-26.89,187.44,-11.34,30.84
79577,-0.15,-1.08,-0.12,-27.48,190.98,2.11,30.93
79587,-0.18,-1.12,0.06,-38.11,167.36,8.09,30.93
79597,-0.39,-1.12,0.07,-62.06,159.54,7.25,30.84
79607,-0.61,-1.20,0.21,-69.44,149.45,20.69,30.74
79617,-0.60,-1.33,0.32,-57.85,121.63,30.18,30.74
79627,-0.73,-1.36,0.43,-43.27,80.23,36.56,30.88
79637,-0.62,-1.32,0.24,-22.76,61.02,42.72,30.88
79647,-0.53,-1.31,0.33,-0.82,39.15,51.56,30.88
79657,-0.55,-1.19,0.41,19.77,7.94,64.08,30.88
79667,-0.34,-1.14,0.21,40.49,-16.67,64.79,30.79
79677,-0.06,-0.99,0.04,40.38,-33.73,63.79,30.88
79687,0.13,-0.94,0.02,47.05,-49.13,55.25,30.88
79697,0.27,-0.93,-0.12,38.08,-52.98,41.94,30.84
79707,0.35,-0.89,-0.16,21.68,-45.66,31.77,30.93
79717,0.45,-0.85,-0.12,10.43,-44.44,24.26,30.84
79727,0.50,-0.88,-0.06,4.52,-35.27,16.89,30.93
79737,0.54,-0.90,-0.01,-0.76,-26.02,8.98,30.84
79747,0.55,-0.90,-0.03,-6.37,-15.53,0.89,30.84
79757,0.49,-0.92,0.08,-4.69,-11.02,-4.21,30.84
79767,0.47,-0.92,0.12,-8.93,-1.24,-7.25,30.88
79777,0.43,-0.95,0.10,-11.39,3.24,-10.46,30.88
79787,0.39,-0.98,0.22,-6.95,15.10,-13.33,30.79
79797,0.29,-1.04,0.20,-7.27,8.95,-15.83,30.88
79807,0.21,-1.04,0.20,-4.64,7.63,-17.24,30.79
79817,0.15,-1.05,0.30,-7.33,11.48,-18.26,30.88
79827,0.12,-1.06,0.27,-6.08,5.69,-16.58,30.93
79837,0.07,-1.06,0.26,-1.80,5.77,-13.10,30.93
79847,0.06,-1.05,0.25,1.05,-5.79,-10.60,30.93
79857,0.10,-1.09,0.21,3.71,-6.40,-6.61,30.93
79867,0.11,-1.07,0.21,6.61,-12.06,-3.66,30.84
79877,0.15,-1.06,0.19,7.48,-13.16,-0.44,30.84
79887,0.20,-1.04,0.19,8.24,-16.05,0.52,30.84
79897,0.24,-1.01,0.16,8.06,-18.26,0.24,30.88
79907,0.28,-1.01,0.15,7.11,-16.53,-0.53,30.88
79917,0.29,-0.97,0.13,2.27,-17.48,0.03,30.88
79927,0.32,-0.98,0.09,0.90,-14.29,0.98,30.79
79937,0.31,-0.99,0.10,-0.18,-10.14,1.79,30.88
79947,0.30,-0.99,0.11,-2.06,-8.89,2.70,30.88
79957,0.29,-1.01,0.12,-3.18,-6.55,3.36,30.84
79967,0.28,-1.00,0.13,-5.66,-6.38,3.47,30.84
79977,0.27,-1.01,0.14,-5.82,-6.89,4.56,30.84
79987,0.25,-1.03,0.13,-4.69,-5.68,5.10,30.84
79997,0.25,-1.04,0.11,-4.78,-0.50,6.15,30.84
80007,0.28,-1.03,0.10,-7.05,4.17,6.72,30.84
80017,0.21,-1.05,0.18,-3.71,-4.98,6.60,30.84
80027,0.20,-1.06,0.18,-1.01,-5.02,4.89,30.88
80037,0.17,-1.07,0.18,0.18,-7.40,2.14,30.88
80047,0.14,-1.06,0.18,1.77,-11.36,0.29,30.79
80057,0.09,-1.07,0.19,3.95,-17.95,-2.23,30.79
80067,0.07,-1.05,0.18,5.07,-24.40,-3.39,30.88
80077,0.03,-1.05,0.18,6.00,-31.28,-3.92,30.79
80087,0.02,-1.05,0.16,6.90,-38.06,-3.68,30.93
80097,-0.01,-1.05,0.15,5.76,-45.57,-4.69,30.84
80107,-0.05,-1.07,0.18,7.62,-58.43,-4.55,30.84
80117,-0.10,-1.08,0.19,10.84,-65.27,-0.79,30.84
80127,-0.13,-1.03,0.11,8.03,-71.69,6.00,30.74
80137,-0.16,-1.04,0.15,10.76,-73.92,14.44,30.84
80147,-0.13,-1.05,0.19,19.66,-89.40,21.89,30.84
80157,-0.08,-1.06,0.11,21.85,-98.98,23.36,30.79
80167,-0.11,-1.05,0.09,11.54,-97.18,25.76,30.79
80177,-0.08,-1.05,0.10,22.14,-101.60,27.80,30.88
80187,-0.00,-1.06,0.07,15.71,-100.78,29.74,30.79
80197,-0.08,-1.02,0.10,13.54,-105.82,32.79,30.88
80207,-0.07,-1.00,0.08,12.87,-105.77,38.21,30.88
80217,-0.09,-1.02,0.05,13.63,-102.05,44.89,30.74
80227,-0.08,-1.03,0.05,17.50,-104.00,50.72,30.84
80237,-0.07,-1.03,0.05,19.53,-110.60,55.34,30.84
80247,-0.07,-1.04,0.05,20.40,-118.18,57.94,30.84
80257,-0.05,-1.06,0.07,18.82,-125.30,58.06,30.93
80267,-0.06,-1.09,0.13,19.36,-134.27,56.56,30.84
80277,-0.02,-1.10,0.12,28.89,-141.10,55.57,30.84
80287,0.04,-1.10,0.06,39.95,-140.12,55.98,30.79
80297,0.08,-1.08,-0.02,46.24,-133.82,56.46,30.88
80307,0.07,-1.08,-0.05,44.60,-128.58,54.95,30.88
80317,0.06,-1.09,-0.06,41.83,-127.76,52.24,30.88
80327,0.06,-1.10,-0.08,36.29,-131.07,47.56,30.79
80337,0.05,-1.10,-0.09,32.44,-135.88,43.05,30.88
80347,0.04,-1.11,-0.08,31.25,-139.16,40.58,30.84
80357,0.04,-1.10,-0.09,31.34,-139.92,39.60,30.74
80367,0.05,-1.10,-0.10,30.53,-138.09,38.41,30.84
80377,0.03,-1.09,-0.09,26.87,-139.95,34.98,30.84
80387,-0.01,-1.08,-0.05,24.09,-149.47,31.83,30.84
80397,-0.03,-1.08,-0.05,26.08,-154.69,31.66,30.84
80407,-0.03,-1.06,-0.07,27.86,-153.63,34.38,30.79
80417,-0.02,-1.05,-0.12,31.07,-148.12,40.46,30.88
80427,-0.02,-1.03,-0.16,30.03,-139.44,47.65,30.79
80437,-0.03,-1.02,-0.16,25.97,-134.61,53.56,30.88
80447,-0.03,-1.04,-0.13,20.05,-138.06,55.94,30.88
80457,-0.04,-1.05,-0.11,14.87,-142.00,55.73,30.88
80467,-0.05,-1.07,-0.12,12.98,-146.34,56.63,30.93
80477,-0.05,-1.07,-0.13,10.55,-147.76,57.69,30.84
80487,-0.05,-1.08,-0.14,5.05,-147.47,56.96,30.84
80497,-0.07,-1.09,-0.07,-0.58,-150.99,54.05,30.84
80507,-0.08,-1.12,-0.03,-4.60,-159.97,49.95,30.84
80517,-0.09,-1.13,0.00,-6.99,-164.06,45.76,30.84
80527,-0.12,-1.16,0.05,-3.91,-170.64,42.75,30.88
80537,-0.12,-1.18,0.05,2.17,-176.29,42.05,30.98
80547,-0.11,-1.20,0.00,6.41,-177.60,41.86,30.79
80557,-0.13,-1.22,-0.02,5.89,-179.59,41.98,30.88
80567,-0.12,-1.24,-0.00,9.24,-182.24,45.22,30.84
80577,-0.08,-1.26,-0.04,13.60,-178.18,47.44,30.79
80587,-0.07,-1.25,-0.03,10.82,-176.09,44.61,30.84
80597,-0.07,-1.23,0.01,14.27,-183.91,41.94,30.84
80607,-0.04,-1.21,-0.04,19.42,-189.13,39.73,30.84
80617,-0.04,-1.19,-0.07,21.42,-191.04,40.21,30.84
80627,0.00,-1.18,-0.11,26.23,-187.97,43.30,30.84
80637,0.02,-1.16,-0.12,25.28,-179.16,46.09,30.84
80647,0.04,-1.14,-0.11,27.21,-175.98,48.56,30.79
80657,0.07,-1.12,-0.14,26.84,-165.08,49.45,30.79
80667,0.07,-1.11,-0.13,24.56,-158.99,47.25,30.88
80677,0.07,-1.08,-0.09,26.27,-157.66,46.67,30.79
80687,0.12,-1.05,-0.15,29.13,-152.20,45.97,30.88
80697,0.12,-1.02,-0.14,25.39,-140.43,43.66,30.84
80707,0.12,-1.00,-0.13,25.33,-134.46,42.90,30.84
80717,0.16,-0.98,-0.15,23.22,-127.45,38.52,30.93
80727,0.14,-0.96,-0.15,18.09,-122.50,34.96,30.84
80737,0.13,-0.95,-0.14,15.94,-120.43,31.77,30.84
80747,0.11,-0.95,-0.17,12.27,-115.73,30.34,30.84
80757,0.08,-0.96,-0.16,3.69,-115.22,27.82,30.88
80767,0.04,-0.98,-0.10,-4.43,-117.76,27.62,30.79
80777,0.03,-1.00,-0.08,-8.06,-118.87,29.95,30.79
80787,0.04,-1.02,-0.07,-12.81,-114.63,32.31,30.79
80797,0.04,-1.06,-0.01,-14.26,-111.68,34.27,30.79
80807,0.05,-1.07,0.01,-15.22,-108.43,34.27,30.88
80817,0.05,-1.10,0.04,-17.60,-108.95,32.09,30.84
80827,0.06,-1.12,0.09,-18.20,-113.16,26.92,30.74
80837,0.06,-1.15,0.11,-16.85,-120.31,22.15,30.84
80847,0.08,-1.18,0.12,-14.11,-124.24,17.24,30.84
80857,0.10,-1.22,0.14,-12.26,-125.36,10.35,30.84
80867,0.09,-1.24,0.19,-9.80,-128.00,3.92,30.84
80877,0.09,-1.26,0.19,-5.25,-130.56,0.32,30.88
80887,0.10,-1.27,0.19,1.19,-130.41,-1.40,30.79
80897,0.12,-1.25,0.18,7.88,-128.27,-3.62,30.88
80907,0.16,-1.24,0.15,13.50,-126.64,-6.64,30.69
80917,0.20,-1.22,0.13,17.40,-124.35,-9.36,30.84
80927,0.24,-1.17,0.11,21.53,-120.37,-12.64,30.79
80937,0.29,-1.12,0.08,24.29,-114.66,-17.95,30.84
80947,0.28,-1.08,0.06,23.89,-112.85,-25.71,30.84
80957,0.29,-1.01,0.04,21.31,-115.74,-33.62,30.74
80967,0.29,-0.98,0.00,17.19,-119.53,-39.02,30.74
80977,0.26,-0.94,-0.01,12.32,-122.23,-40.61,30.84
80987,0.27,-0.91,-0.01,8.98,-120.00,-37.39,30.84
80997,0.27,-0.87,-0.03,4.20,-113.69,-32.69,30.88
81007,0.26,-0.84,-0.01,-4.41,-108.14,-30.20,30.79
81017,0.23,-0.82,0.03,-10.56,-106.18,-26.63,30.79
81027,0.22,-0.80,0.05,-12.20,-107.56,-18.93,30.79
81037,0.24,-0.79,0.02,-11.27,-102.15,-7.42,30.79
81047,0.24,-0.78,0.01,-10.55,-90.90,5.98,30.74
81057,0.25,-0.77,0.01,-13.15,-78.05,20.08,30.84
81067,0.26,-0.75,0.01,-17.63,-69.54,31.22,30.84
81077,0.26,-0.76,0.03,-22.79,-65.59,39.02,30.84
81087,0.28,-0.79,0.05,-24.58,-66.82,44.15,30.84
81097,0.28,-0.82,0.07,-27.66,-67.77,45.73,30.84
81107,0.27,-0.85,0.13,-30.72,-73.13,45.97,30.84
81117,0.27,-0.87,0.16,-29.80,-75.85,47.27,30.88
81127,0.29,-0.88,0.14,-28.03,-73.01,50.17,30.69
81137,0.31,-0.87,0.12,-25.53,-65.28,55.01,30.79
81147,0.31,-0.90,0.12,-22.46,-59.51,60.03,30.79
81157,0.33,-0.93,0.11,-21.07,-50.67,63.60,30.79
81167,0.34,-0.96,0.12,-21.28,-45.24,62.46,30.84
81177,0.34,-0.98,0.16,-23.97,-45.95,56.87,30.84
81187,0.36,-1.00,0.19,-22.67,-50.34,49.31,30.74
81197,0.38,-0.99,0.20,-20.73,-53.24,40.15,30.74
81207,0.40,-0.99,0.17,-18.35,-54.05,31.51,30.84
81217,0.38,-0.97,0.16,-19.01,-53.91,23.94,30.74
81227,0.38,-0.98,0.13,-17.57,-50.38,21.36,30.88
81237,0.40,-0.99,0.09,-18.61,-40.20,18.90,30.88
81247,0.36,-1.03,0.12,-20.90,-33.76,16.52,30.88
81257,0.34,-1.06,0.15,-21.79,-34.09,12.60,30.79
81267,0.34,-1.06,0.18,-21.53,-32.55,6.26,30.84
81277,0.33,-1.04,0.20,-19.11,-33.77,-0.12,30.88
81287,0.31,-1.03,0.20,-14.03,-32.17,-1.95,30.84
81297,0.31,-1.01,0.15,-10.05,-25.42,-1.30,30.84
81307,0.29,-1.02,0.15,-8.90,-17.94,0.60,30.84
81317,0.28,-1.05,0.14,-9.34,-14.49,1.62,30.84
81327,0.27,-1.06,0.14,-13.07,-11.66,0.87,30.84
81337,0.27,-1.08,0.15,-14.84,-10.72,-0.61,30.74
81347,0.26,-1.09,0.17,-14.15,-10.00,-2.98,30.88
81357,0.27,-1.09,0.18,-12.09,-8.52,-5.85,30.88
81367,0.27,-1.09,0.19,-11.36,-6.52,-9.88,30.88
81377,0.26,-1.10,0.20,-9.10,-4.60,-13.57,30.88
81387,0.24,-1.10,0.19,-7.39,-3.42,-16.18,30.79
81397,0.24,-1.11,0.20,-5.88,-2.95,-18.09,30.84
81407,0.23,-1.10,0.17,-4.32,-0.96,-20.12,30.84
81417,0.22,-1.09,0.17,-4.76,1.57,-22.92,30.84
81427,0.20,-1.08,0.18,-5.44,0.43,-25.94,30.74
81437,0.17,-1.06,0.19,-4.18,-3.10,-27.65,30.93
81447,0.16,-1.06,0.16,-2.24,0.61,-26.99,30.84
81457,0.13,-1.06,0.16,-0.52,2.03,-26.27,30.79
81467,0.12,-1.07,0.16,0.79,3.56,-24.43,30.88
81477,0.10,-1.07,0.13,-0.05,4.78,-21.10,30.79
81487,0.10,-1.06,0.13,-1.42,4.49,-18.84,30.88
81497,0.10,-1.07,0.15,-1.79,4.17,-17.47,30.69
81507,0.10,-1.09,0.17,-1.85,3.31,-16.96,30.88
81517,0.10,-1.09,0.20,-1.54,1.28,-17.30,30.84
81527,0.10,-1.09,0.23,-0.12,-1.44,-17.44,30.84
81537,0.11,-1.08,0.22,2.34,-2.73,-18.52,30.74
81547,0.10,-1.06,0.23,3.98,-4.20,-19.77,30.84
81557,0.08,-1.05,0.20,7.28,-8.09,-19.07,30.84
81567,0.08,-1.03,0.17,8.32,-9.86,-16.85,30.84
81577,0.08,-1.02,0.14,7.31,-9.39,-11.86,30.79
81587,0.08,-1.00,0.12,7.65,-9.54,-4.87,30.69
81597,0.11,-1.00,0.11,6.78,-5.74,1.56,30.88
81607,0.11,-1.01,0.10,4.15,-2.15,6.85,30.79
81617,0.13,-1.02,0.14,2.95,-2.38,10.69,30.84
81627,0.14,-1.01,0.13,0.73,-3.04,11.37,30.79
81637,0.16,-0.99,0.16,0.70,-5.50,11.66,30.84
81647,0.17,-0.98,0.14,2.23,-4.79,12.24,30.93
81657,0.17,-0.99,0.14,1.51,-2.87,12.49,30.74
81667,0.17,-1.00,0.15,1.42,-2.14,12.66,30.84
81677,0.17,-1.00,0.13,0.37,-0.84,13.36,30.84
81687,0.17,-1.00,0.14,-1.05,-0.95,13.51,30.84
81697,0.17,-1.00,0.13,-2.21,-0.17,12.18,30.79
81707,0.16,-1.02,0.16,-3.21,0.09,9.71,30.88
81717,0.15,-1.03,0.19,-3.19,-1.34,6.50,30.79
81727,0.15,-1.04,0.20,-1.92,-1.71,2.87,30.88
81737,0.15,-1.04,0.19,-1.56,-1.92,-0.96,30.79
81747,0.14,-1.04,0.20,-1.53,-2.73,-4.03,30.84
81757,0.14,-1.02,0.19,-0.60,-3.68,-7.33,30.84
81767,0.13,-1.02,0.17,-1.10,-3.91,-9.77,30.84
81777,0.13,-0.99,0.19,-1.68,-4.18,-10.90,30.84
81787,0.11,-1.00,0.17,-2.67,-4.98,-10.53,30.84
81797,0.11,-0.99,0.17,-4.34,-5.37,-9.82,30.74
81807,0.10,-0.99,0.19,-4.67,-5.69,-8.55,30.79
81817,0.11,-0.99,0.20,-3.66,-4.53,-7.36,30.79
81827,0.10,-0.99,0.20,-4.29,-4.29,-7.48,30.79
81837,0.10,-0.98,0.21,-3.53,-7.16,-7.13,30.88
81847,0.11,-0.97,0.19,-3.77,-7.57,-6.21,30.79
81857,0.12,-0.97,0.18,-4.60,-7.89,-5.19,30.88
81867,0.11,-0.96,0.17,-6.38,-8.17,-4.00,30.84
81877,0.10,-0.96,0.20,-7.85,-10.37,-2.60,30.74
81887,0.10,-0.96,0.18,-7.50,-12.15,0.99,30.74
81897,0.11,-0.96,0.17,-6.46,-10.55,5.80,30.93
81907,0.12,-0.97,0.17,-6.43,-6.20,10.41,30.74
81917,0.13,-0.98,0.18,-6.46,-4.02,13.57,30.88
81927,0.14,-0.98,0.16,-7.62,-3.71,16.15,30.88
81937,0.15,-1.00,0.16,-8.24,-4.96,17.95,30.79
81947,0.16,-1.02,0.17,-8.58,-5.92,18.87,30.79
81957,0.17,-1.04,0.18,-8.41,-6.32,18.76,30.79
81967,0.20,-1.05,0.19,-7.77,-6.37,17.66,30.74
81977,0.20,-1.06,0.20,-6.03,-6.41,16.08,30.74
81987,0.21,-1.06,0.19,-4.79,-4.73,14.14,30.84
81997,0.22,-1.06,0.20,-2.44,-3.73,12.35,30.84
82007,0.22,-1.07,0.19,-2.37,-1.11,8.67,30.84
82017,0.22,-1.07,0.20,-2.32,-1.85,4.21,30.74
82027,0.22,-1.06,0.18,-1.97,-2.52,0.63,30.84
82037,0.21,-1.05,0.19,-1.80,-2.90,-3.15,30.79
82047,0.21,-1.04,0.18,-1.50,-2.85,-6.46,30.79
82057,0.19,-1.04,0.18,-1.37,-3.91,-8.58,30.79
82067,0.18,-1.04,0.17,-2.47,-3.73,-10.15,30.79
82077,0.17,-1.03,0.17,-2.90,-3.28,-10.67,30.79
82087,0.17,-1.02,0.18,-3.47,-1.42,-11.02,30.88
82097,0.16,-1.00,0.18,-3.40,-1.16,-10.34,30.84
82107,0.14,-1.00,0.18,-2.89,-2.08,-9.62,30.93
82117,0.14,-1.00,0.17,-2.69,-2.76,-7.39,30.74
82127,0.14,-0.99,0.16,-2.14,-2.35,-3.83,30.84
82137,0.15,-0.99,0.15,-3.08,0.49,-1.01,30.74
82147,0.16,-0.99,0.16,-5.24,2.53,-1.07,30.74
82157,0.15,-0.99,0.18,-6.87,1.25,-1.89,30.88
82167,0.14,-1.00,0.19,-5.39,-1.76,-1.37,30.79
82177,0.14,-0.99,0.19,-2.85,-1.33,0.18,30.79
82187,0.14,-0.98,0.19,-1.28,1.76,2.44,30.79
82197,0.15,-0.96,0.17,-0.75,4.41,5.44,30.79
82207,0.15,-0.96,0.16,-1.48,7.51,7.42,30.88
82217,0.12,-0.97,0.15,-3.63,7.86,6.53,30.84
82227,0.10,-0.97,0.16,-6.78,0.58,4.05,30.74
82237,0.10,-0.98,0.14,-9.25,0.52,5.34,30.84
82247,0.12,-1.00,0.14,-11.07,-1.68,6.02,30.84
82257,0.12,-1.01,0.18,-11.69,-0.27,7.30,30.74
82267,0.13,-1.01,0.22,-9.60,0.69,8.60,30.74
82277,0.13,-1.02,0.23,-6.26,1.88,10.20,30.88
82287,0.14,-1.02,0.21,-1.85,4.38,11.65,30.79
82297,0.14,-1.02,0.18,-0.79,6.96,11.95,30.79
82307,0.13,-1.01,0.15,-1.51,5.88,11.40,30.79
82317,0.14,-1.01,0.12,-4.76,4.24,10.70,30.84
82327,0.15,-1.00,0.13,-7.65,2.76,9.54,30.79
82337,0.16,-1.02,0.15,-9.28,2.73,7.88,30.84
82347,0.16,-1.03,0.16,-10.47,3.40,6.24,30.74
82357,0.16,-1.04,0.18,-10.78,4.11,3.98,30.84
82367,0.16,-1.05,0.19,-9.53,4.00,0.95,30.84
82377,0.16,-1.06,0.19,-7.92,3.82,-2.23,30.74
82387,0.15,-1.06,0.19,-7.31,2.79,-6.05,30.84
82397,0.13,-1.05,0.18,-7.27,0.55,-7.92,30.79
82407,0.12,-1.06,0.17,-7.31,-0.50,-8.17,30.79
82417,0.12,-1.06,0.17,-7.36,0.50,-7.08,30.79
82427,0.11,-1.05,0.17,-7.07,1.97,-5.47,30.79
82437,0.12,-1.04,0.19,-5.19,3.22,-3.79,30.79
82447,0.12,-1.04,0.17,-4.11,5.27,-3.08,30.74
82457,0.12,-1.04,0.18,-4.35,4.98,-2.98,30.84
82467,0.11,-1.03,0.17,-3.10,2.69,-1.94,30.84
82477,0.12,-1.04,0.15,-2.76,3.54,-0.31,30.84
82487,0.13,-1.05,0.15,-3.98,5.71,-0.64,30.84
82497,0.12,-1.05,0.18,-6.84,3.42,-3.66,30.84
82507,0.11,-1.05,0.20,-6.00,-2.85,-5.53,30.74
82517,0.12,-1.04,0.18,-3.91,-3.76,-5.92,30.79
82527,0.13,-1.03,0.17,-1.25,-1.24,-4.34,30.88
82537,0.13,-1.02,0.17,-0.87,2.92,-2.43,30.88
82547,0.12,-1.01,0.16,-1.59,5.27,-0.82,30.88
82557,0.12,-1.01,0.13,-2.58,5.37,1.13,30.88
82567,0.12,-1.00,0.12,-3.95,5.60,2.69,30.88
82577,0.13,-1.00,0.15,-5.02,5.44,3.57,30.84
82587,0.14,-1.01,0.14,-6.31,5.10,4.05,30.74
82597,0.14,-1.02,0.15,-7.16,5.33,4.11,30.74
82607,0.14,-1.02,0.14,-8.27,5.79,4.05,30.84
82617,0.13,-1.02,0.16,-7.77,5.33,3.94,30.74
82627,0.13,-1.00,0.18,-7.57,8.06,4.52,30.84
82637,0.14,-1.01,0.17,-6.23,7.21,4.76,30.79
82647,0.14,-1.00,0.14,-6.03,9.28,2.55,30.79
82657,0.12,-1.00,0.16,-7.54,9.24,0.84,30.79
82667,0.10,-1.02,0.16,-7.73,4.26,-0.17,30.79
82677,0.12,-1.02,0.15,-8.64,0.96,-1.13,30.88
82687,0.12,-1.03,0.16,-8.23,0.23,-1.54,30.88
82697,0.12,-1.03,0.16,-6.92,0.95,-0.82,30.84
82707,0.13,-1.02,0.17,-5.10,3.16,0.26,30.74
82717,0.14,-1.02,0.16,-3.86,6.11,1.34,30.74
82727,0.14,-1.02,0.15,-3.39,7.01,1.34,30.84
82737,0.14,-1.02,0.14,-3.63,6.14,1.30,30.84
82747,0.15,-1.02,0.13,-4.90,5.45,-0.66,30.74
82757,0.14,-1.03,0.15,-6.06,4.18,-4.03,30.79
82767,0.14,-1.03,0.15,-6.23,2.55,-6.31,30.69
82777,0.13,-1.03,0.15,-6.06,1.11,-7.63,30.79
82787,0.12,-1.03,0.15,-5.40,1.36,-7.73,30.88
82797,0.12,-1.03,0.17,-4.61,2.23,-6.93,30.74
82807,0.11,-1.03,0.16,-4.20,3.10,-5.47,30.88
82817,0.11,-1.02,0.15,-4.55,3.89,-4.18,30.79
82827,0.11,-1.03,0.14,-4.64,4.56,-3.01,30.84
82837,0.12,-1.03,0.16,-4.98,4.56,-2.75,30.84
82847,0.11,-1.02,0.17,-4.55,3.73,-2.44,30.93
82857,0.12,-1.03,0.17,-3.79,3.57,-2.17,30.84
82867,0.12,-1.04,0.16,-3.47,4.29,-1.79,30.84
82877,0.12,-1.04,0.16,-2.31,4.61,-1.19,30.84
82887,0.13,-1.04,0.15,-2.29,6.17,-1.27,30.88
82897,0.14,-1.03,0.14,-2.96,7.36,-1.48,30.79
82907,0.13,-1.03,0.14,-4.15,7.57,-1.95,30.79
82917,0.14,-1.02,0.13,-6.12,7.86,-2.89,30.88
82927,0.14,-1.02,0.13,-7.82,6.87,-3.62,30.93
82937,0.13,-1.02,0.14,-8.41,5.85,-4.50,30.79
82947,0.12,-1.01,0.14,-9.80,5.04,-4.93,30.84
82957,0.12,-1.01,0.14,-10.79,3.25,-4.32,30.84
82967,0.12,-1.01,0.15,-10.38,3.04,-2.99,30.84
82977,0.12,-1.02,0.15,-8.95,3.97,-0.84,30.84
82987,0.12,-1.01,0.16,-7.91,5.45,1.62,30.74
82997,0.13,-1.02,0.16,-6.50,5.48,2.63,30.88
83007,0.13,-1.03,0.16,-6.03,5.66,1.68,30.88
83017,0.13,-1.03,0.16,-5.22,3.79,0.08,30.88
83027,0.13,-1.02,0.16,-4.60,1.85,-1.45,30.88
83037,0.13,-1.02,0.16,-4.50,1.80,-1.73,30.88
83047,0.12,-1.00,0.17,-6.20,4.55,-0.52,30.79
83057,0.12,-1.01,0.14,-4.56,1.97,-0.81,30.84
83067,0.14,-1.01,0.14,-2.92,3.83,0.32,30.74
83077,0.14,-1.02,0.15,-1.50,6.46,2.05,30.93
83087,0.14,-1.01,0.15,-1.22,7.83,2.95,30.84
83097,0.14,-1.02,0.15,-1.08,7.59,2.92,30.84
83107,0.15,-1.01,0.14,-1.62,8.66,1.31,30.74
83117,0.15,-1.02,0.14,-2.92,7.57,-1.74,30.79
83127,0.14,-1.02,0.16,-3.83,3.88,-6.08,30.79
83137,0.14,-1.01,0.17,-4.70,1.22,-9.66,30.88
83147,0.13,-1.01,0.15,-4.43,-0.81,-12.56,30.79
83157,0.11,-0.98,0.14,-5.11,-3.10,-13.04,30.79
83167,0.14,-0.98,0.14,-5.24,2.49,-13.31,30.79
83177,0.10,-0.98,0.14,-4.53,2.05,-9.91,30.84
83187,0.15,-0.96,0.09,-6.03,4.17,-7.66,30.84
83197,0.10,-0.96,0.14,-7.08,6.18,-3.85,30.84
83207,0.14,-0.96,0.11,-7.07,5.24,-1.76,30.93
83217,0.14,-0.97,0.13,-9.65,5.83,-2.27,30.84
83227,0.15,-1.00,0.12,-9.83,4.44,-3.44,30.93
83237,0.15,-1.01,0.14,-10.81,3.13,-5.94,30.79
83247,0.15,-1.02,0.16,-11.44,0.99,-8.40,30.79
83257,0.15,-1.03,0.17,-9.91,-0.40,-9.91,30.79
83267,0.15,-1.02,0.15,-8.93,0.05,-10.21,30.88
83277,0.15,-1.02,0.15,-7.91,0.98,-9.56,30.84
83287,0.16,-1.03,0.14,-6.95,1.85,-7.54,30.84
83297,0.16,-1.02,0.13,-6.56,3.47,-5.63,30.84
83307,0.17,-1.01,0.13,-6.02,5.53,-2.85,30.84
83317,0.18,-1.01,0.12,-5.97,8.35,-1.30,30.84
83327,0.18,-1.02,0.11,-7.97,9.91,-2.46,30.74
83337,0.17,-1.03,0.14,-10.47,6.24,-5.44,30.84
83347,0.16,-1.04,0.15,-10.55,1.05,-8.49,30.79
83357,0.16,-1.05,0.14,-10.95,-2.21,-10.99,30.79
83367,0.15,-1.06,0.15,-11.07,-2.85,-12.23,30.88
83377,0.15,-1.05,0.17,-10.38,-3.74,-11.69,30.79
83387,0.14,-1.05,0.16,-9.65,-2.47,-9.88,30.79
83397,0.14,-1.04,0.16,-8.64,-0.82,-6.81,30.84
83407,0.14,-1.04,0.16,-7.11,0.81,-3.04,30.84
83417,0.14,-1.05,0.14,-5.40,3.19,1.04,30.93
83427,0.15,-1.05,0.13,-4.60,4.18,4.44,30.93
83437,0.16,-1.06,0.12,-4.90,4.98,5.97,30.84
83447,0.16,-1.06,0.13,-7.16,4.03,5.05,30.84
83457,0.16,-1.07,0.16,-7.25,-0.69,3.50,30.79
83467,0.17,-1.07,0.14,-5.47,-2.47,3.02,30.88
