Millis,Acce_X,Acce_Y,Acce_Z,Gyro_X,Gyro_Y,Gyro_Z,Temp
48987,-0.05,-1.08,-0.12,-7.73,-3.66,-7.79,30.04
48997,-0.08,-1.07,-0.12,-6.63,-6.12,-10.15,30.13
49007,-0.08,-1.04,-0.12,-4.53,-8.95,-9.85,30.04
49017,-0.09,-1.03,-0.13,-3.47,-8.81,-6.75,30.13
49027,-0.12,-1.04,-0.11,-2.37,-10.53,-3.68,30.08
49037,-0.12,-1.06,-0.12,-1.05,-11.77,-1.25,30.13
49047,-0.13,-1.09,-0.10,-2.03,-15.39,-2.46,30.08
49057,-0.13,-1.09,-0.06,-3.47,-20.96,-6.46,30.08
49067,-0.16,-1.09,-0.05,-2.17,-25.48,-9.88,30.08
49077,-0.18,-1.08,-0.03,1.33,-28.99,-11.48,30.18
49087,-0.22,-1.02,-0.05,4.44,-31.60,-7.57,30.08
49097,-0.26,-0.98,-0.09,5.21,-34.41,2.31,30.18
49107,-0.26,-1.00,-0.12,3.98,-34.02,16.03,30.04
49117,-0.29,-1.07,-0.11,2.31,-40.43,27.11,30.13
49127,-0.26,-1.14,-0.12,0.02,-43.83,33.31,30.13
49137,-0.18,-1.22,-0.11,-2.43,-44.41,30.50,30.13
49147,-0.11,-1.28,-0.09,-3.73,-47.02,15.48,30.13
49157,-0.08,-1.23,-0.06,-7.13,-53.30,-8.32,30.08
49167,-0.07,-1.15,-0.06,-9.08,-63.48,-30.15,30.08
49177,-0.09,-1.08,-0.15,-6.50,-69.59,-39.80,30.08
49187,-0.15,-1.03,-0.23,-2.55,-70.85,-34.47,30.08
49197,-0.16,-1.02,-0.25,-1.65,-65.88,-23.82,30.08
49207,-0.14,-1.01,-0.20,-5.28,-62.29,-16.21,30.08
49217,-0.10,-0.94,-0.18,-8.49,-58.69,-9.10,30.08
49227,-0.10,-0.93,-0.17,-6.41,-58.05,-4.50,30.22
49237,-0.11,-0.95,-0.18,0.11,-60.87,-1.18,30.04
49247,-0.12,-1.00,-0.19,3.97,-64.98,-1.65,30.13
49257,-0.08,-1.03,-0.19,0.79,-66.00,-6.52,30.04
49267,-0.03,-1.04,-0.19,-8.90,-62.53,-15.88,30.04
49277,-0.05,-1.00,-0.15,-18.03,-59.15,-26.15,30.13
49287,-0.08,-0.99,-0.14,-19.27,-58.99,-32.12,29.99
49297,-0.11,-0.97,-0.16,-18.14,-57.15,-33.59,29.99
49307,-0.16,-0.96,-0.17,-15.22,-59.89,-29.98,30.18
49317,-0.17,-0.97,-0.15,-12.96,-61.76,-22.90,30.08
49327,-0.16,-0.97,-0.16,-9.36,-60.27,-17.25,29.99
49337,-0.15,-0.97,-0.16,-9.69,-57.28,-14.56,30.04
49347,-0.16,-0.99,-0.14,-10.02,-59.40,-14.82,30.04
49357,-0.15,-0.98,-0.15,-9.80,-63.98,-14.84,30.13
49367,-0.14,-1.00,-0.17,-7.10,-70.09,-12.73,30.04
49377,-0.13,-1.02,-0.18,-4.37,-70.29,-9.60,30.08
49387,-0.10,-1.03,-0.17,-3.08,-68.38,-7.22,30.13
49397,-0.07,-1.03,-0.17,-2.85,-65.71,-6.66,30.08
49407,-0.07,-1.02,-0.17,-3.05,-63.44,-6.99,30.18
49417,-0.07,-1.04,-0.18,-1.88,-62.21,-6.85,30.18
49427,-0.07,-1.06,-0.19,-2.15,-65.51,-7.79,30.08
49437,-0.06,-1.07,-0.20,-0.93,-64.93,-5.19,29.99
49447,-0.05,-1.08,-0.21,-0.66,-63.97,-4.29,30.18
49457,0.01,-1.10,-0.23,0.21,-58.93,-7.62,30.13
49467,-0.01,-1.09,-0.20,-1.59,-59.60,-14.81,30.04
49477,-0.02,-1.08,-0.21,0.34,-56.20,-19.25,30.13
49487,-0.07,-1.10,-0.21,2.75,-57.31,-20.98,30.04
49497,-0.12,-1.08,-0.22,5.60,-53.71,-17.71,30.13
49507,-0.12,-1.06,-0.21,5.80,-49.36,-16.17,30.08
49517,-0.11,-1.02,-0.22,3.31,-46.85,-17.25,30.18
49527,-0.13,-0.96,-0.23,-0.29,-46.35,-21.86,30.08
49537,-0.14,-0.93,-0.24,-4.99,-48.90,-27.28,30.08
49547,-0.15,-0.91,-0.22,-10.73,-52.55,-32.67,30.08
49557,-0.18,-0.93,-0.19,-16.11,-57.76,-37.08,30.08
49567,-0.20,-0.95,-0.16,-18.21,-61.16,-37.36,30.08
49577,-0.21,-0.97,-0.14,-16.06,-64.41,-32.87,30.13
49587,-0.20,-0.98,-0.13,-12.21,-65.24,-25.74,30.13
49597,-0.19,-0.97,-0.13,-5.79,-66.08,-17.22,30.13
49607,-0.20,-0.97,-0.13,1.77,-67.71,-7.79,30.13
49617,-0.19,-0.99,-0.17,6.90,-69.19,1.73,30.04
49627,-0.20,-1.01,-0.17,8.02,-75.39,9.19,30.08
49637,-0.15,-1.01,-0.20,7.16,-78.08,13.11,30.08
49647,-0.10,-1.02,-0.22,4.00,-79.31,11.65,30.08
49657,-0.06,-1.01,-0.23,-4.84,-80.26,4.35,30.08
49667,-0.03,-1.01,-0.24,-13.24,-84.96,-5.97,30.08
49677,-0.03,-1.01,-0.24,-21.36,-88.08,-16.35,30.08
49687,-0.08,-1.00,-0.22,-27.21,-92.29,-20.44,30.13
49697,-0.13,-1.02,-0.20,-26.84,-93.02,-15.76,30.04
49707,-0.12,-1.01,-0.24,-23.39,-87.79,-5.71,30.13
49717,-0.08,-1.00,-0.21,-18.00,-79.65,1.92,30.13
49727,-0.03,-0.97,-0.25,-17.22,-74.89,1.74,30.18
49737,0.04,-0.91,-0.30,-23.11,-71.28,-9.68,30.13
49747,0.05,-0.79,-0.29,-35.22,-73.37,-31.92,30.08
49757,-0.11,-0.72,-0.30,-47.47,-86.31,-44.32,30.08
49767,-0.26,-0.78,-0.40,-46.05,-91.08,-27.60,30.08
49777,-0.30,-0.90,-0.37,-36.27,-78.29,9.34,30.18
49787,-0.26,-1.02,-0.25,-26.09,-71.04,39.97,30.08
49797,-0.16,-1.15,-0.13,-18.38,-62.69,53.97,30.13
49807,-0.02,-1.21,-0.12,-8.35,-62.98,47.91,30.13
49817,0.10,-1.15,-0.16,-4.69,-62.31,20.90,30.04
49827,0.12,-1.09,-0.20,-6.69,-70.50,-13.53,30.04
49837,0.04,-1.07,-0.27,-14.15,-89.39,-40.34,30.13
49847,-0.03,-1.02,-0.28,-23.83,-99.80,-49.71,30.13
49857,-0.04,-1.01,-0.29,-28.84,-92.69,-45.95,30.08
49867,-0.02,-0.97,-0.26,-29.07,-79.65,-38.96,30.08
49877,0.02,-0.96,-0.22,-24.53,-66.90,-35.94,30.08
49887,0.05,-0.91,-0.23,-20.31,-61.86,-41.85,30.08
49897,-0.03,-0.88,-0.20,-20.73,-68.49,-48.00,30.08
49907,-0.11,-0.91,-0.22,-16.78,-81.25,-46.79,30.18
49917,-0.14,-0.96,-0.21,-11.42,-87.63,-34.47,30.04
49927,-0.09,-0.99,-0.22,-5.44,-83.21,-16.55,30.04
49937,-0.01,-1.01,-0.21,0.40,-76.23,-4.20,30.04
49947,0.10,-0.98,-0.25,5.65,-68.35,-1.73,30.13
49957,0.14,-0.92,-0.29,6.27,-66.37,-9.24,30.13
49967,0.13,-0.92,-0.33,0.64,-72.50,-18.05,30.04
49977,0.08,-0.97,-0.34,-5.33,-81.71,-22.93,30.08
49987,0.08,-1.01,-0.33,-9.18,-82.14,-20.08,30.08
49997,0.14,-1.02,-0.30,-9.24,-71.74,-14.37,30.08
50007,0.20,-1.03,-0.29,-5.91,-59.71,-15.89,30.08
50017,0.23,-1.01,-0.28,-3.74,-50.95,-25.62,29.99
50027,0.21,-0.96,-0.31,-6.26,-51.95,-43.98,30.08
50037,0.13,-0.90,-0.30,-14.31,-60.95,-60.78,30.13
50047,0.01,-0.90,-0.31,-18.11,-71.86,-63.34,30.04
50057,-0.05,-0.91,-0.31,-17.07,-78.21,-50.60,30.13
50067,-0.08,-0.90,-0.26,-8.56,-72.15,-28.87,30.13
50077,-0.03,-0.93,-0.25,4.64,-62.29,-9.88,30.08
50087,-0.02,-0.94,-0.23,20.81,-54.35,4.69,30.04
50097,-0.04,-0.93,-0.23,34.46,-52.11,15.47,30.13
50107,-0.10,-0.91,-0.18,40.82,-56.92,26.23,29.99
50117,-0.08,-0.92,-0.22,41.21,-59.36,34.92,30.08
50127,-0.04,-0.94,-0.27,32.37,-59.13,32.78,30.08
50137,0.00,-0.96,-0.29,14.92,-54.46,19.60,30.08
50147,0.02,-0.97,-0.29,-6.52,-54.43,0.81,30.08
50157,0.08,-0.97,-0.30,-24.21,-60.03,-16.67,29.99
50167,0.13,-0.98,-0.29,-38.96,-64.44,-33.94,30.04
50177,0.13,-0.98,-0.24,-49.59,-68.26,-48.05,30.04
50187,0.10,-0.99,-0.22,-51.66,-70.34,-54.47,30.04
50197,0.00,-1.05,-0.20,-48.03,-68.12,-50.70,30.04
50207,-0.07,-1.08,-0.16,-38.40,-64.98,-37.65,30.08
50217,-0.11,-1.11,-0.11,-26.92,-64.78,-22.79,30.04
50227,-0.08,-1.11,-0.09,-15.01,-62.55,-9.21,30.08
50237,-0.03,-1.09,-0.13,-2.49,-60.82,-0.24,30.08
50247,-0.02,-1.07,-0.15,5.33,-61.15,3.73,30.08
50257,-0.01,-1.01,-0.19,8.90,-63.40,5.30,30.08
50267,-0.02,-0.95,-0.22,7.97,-65.54,7.97,30.08
50277,-0.01,-0.95,-0.25,6.11,-66.03,14.11,30.08
50287,0.02,-0.94,-0.25,4.89,-64.34,20.61,30.04
50297,0.06,-0.94,-0.23,5.76,-60.17,24.43,30.13
50307,0.10,-0.94,-0.22,6.90,-57.53,21.76,30.04
50317,0.11,-0.93,-0.22,8.34,-56.85,15.27,30.13
50327,0.09,-0.90,-0.25,6.98,-59.82,6.56,30.04
50337,0.06,-0.91,-0.31,2.18,-62.27,-0.66,30.08
50347,0.01,-0.92,-0.33,-7.44,-64.52,-3.48,30.08
50357,-0.01,-0.94,-0.32,-16.81,-66.82,-1.02,30.08
50367,-0.00,-0.96,-0.29,-21.48,-64.02,4.92,30.08
50377,0.03,-1.00,-0.25,-21.82,-58.90,9.07,30.08
50387,0.06,-1.01,-0.22,-16.84,-54.00,9.45,30.08
50397,0.09,-1.02,-0.23,-10.76,-50.85,4.84,30.18
50407,0.10,-0.98,-0.24,-8.00,-51.56,-3.66,30.04
50417,0.08,-0.92,-0.26,-10.63,-54.70,-12.79,30.04
50427,0.04,-0.91,-0.29,-15.73,-57.89,-17.54,30.04
50437,0.00,-0.93,-0.31,-18.24,-57.37,-16.23,30.04
50447,-0.01,-0.94,-0.30,-16.79,-53.97,-9.86,30.04
50457,-0.01,-0.93,-0.30,-11.76,-48.95,0.40,30.13
50467,0.02,-0.90,-0.31,-4.61,-40.66,13.89,30.08
50477,0.06,-0.88,-0.29,5.22,-38.35,26.89,29.99
50487,0.10,-0.87,-0.30,12.35,-31.50,35.63,29.99
50497,0.10,-0.89,-0.26,17.10,-27.79,41.62,30.08
50507,0.07,-0.95,-0.28,20.67,-22.95,46.53,30.08
50517,0.04,-1.01,-0.22,16.29,-20.27,42.50,30.08
50527,0.02,-1.05,-0.18,8.43,-19.44,33.31,30.04
50537,-0.04,-1.00,-0.14,-3.50,-21.60,21.27,30.13
50547,-0.08,-0.95,-0.16,-12.79,-29.21,10.92,29.94
50557,-0.12,-0.96,-0.22,-18.55,-35.97,5.97,30.13
50567,-0.13,-1.00,-0.27,-20.20,-38.76,9.11,30.04
50577,-0.12,-1.04,-0.29,-21.19,-38.60,16.43,30.04
50587,-0.07,-1.06,-0.25,-23.86,-35.53,23.63,30.08
50597,-0.04,-1.06,-0.22,-24.70,-35.48,27.98,30.08
50607,0.02,-1.07,-0.19,-23.04,-33.89,28.47,30.08
50617,0.07,-1.11,-0.19,-17.85,-31.97,23.28,30.08
50627,0.07,-1.13,-0.19,-12.38,-30.63,12.23,30.18
50637,0.04,-1.14,-0.21,-10.76,-32.61,0.20,30.08
50647,0.03,-1.14,-0.23,-13.25,-36.40,-10.21,30.08
50657,0.00,-1.12,-0.27,-17.30,-36.87,-17.28,30.04
50667,-0.02,-1.11,-0.32,-18.72,-33.62,-16.85,30.04
50677,-0.00,-1.12,-0.32,-19.59,-29.36,-10.93,30.13
50687,0.02,-1.11,-0.29,-18.92,-25.71,-7.68,30.13
50697,0.05,-1.08,-0.25,-18.15,-21.37,-8.67,30.04
50707,0.09,-1.05,-0.22,-16.87,-19.47,-15.42,30.13
50717,0.10,-1.04,-0.21,-16.21,-19.62,-26.53,30.08
50727,0.05,-1.02,-0.22,-16.79,-22.02,-36.40,30.08
50737,-0.01,-1.02,-0.24,-18.18,-24.64,-39.74,30.18
50747,-0.05,-1.01,-0.28,-18.96,-24.63,-37.71,30.08
50757,-0.08,-0.99,-0.27,-19.68,-22.17,-31.01,29.99
50767,-0.09,-0.97,-0.27,-18.41,-18.34,-20.89,30.08
50777,-0.10,-0.97,-0.25,-14.81,-18.17,-11.71,30.04
50787,-0.07,-0.96,-0.23,-10.32,-16.81,-3.88,30.13
50797,-0.04,-0.96,-0.23,-6.75,-14.78,0.56,30.13
50807,-0.02,-0.96,-0.23,-5.47,-14.09,1.82,30.13
50817,-0.01,-0.97,-0.22,-6.73,-15.77,0.26,30.18
50827,-0.02,-0.98,-0.26,-8.67,-14.98,-3.85,30.08
50837,-0.04,-1.00,-0.24,-11.91,-15.40,-7.53,29.99
50847,-0.05,-1.01,-0.23,-13.47,-16.40,-8.44,30.08
50857,-0.07,-1.02,-0.23,-13.63,-16.81,-8.44,30.08
50867,-0.07,-1.03,-0.21,-11.53,-16.02,-5.15,29.99
50877,-0.06,-1.06,-0.20,-7.15,-13.62,-0.35,30.08
50887,-0.05,-1.07,-0.19,-3.37,-9.13,1.68,30.13
50897,-0.05,-1.07,-0.17,-1.77,-7.56,0.47,30.04
50907,-0.06,-1.07,-0.18,-1.36,-9.82,-1.65,30.04
50917,-0.07,-1.08,-0.18,-2.50,-12.17,-4.17,30.04
50927,-0.06,-1.05,-0.19,-1.82,-12.93,-5.33,30.04
50937,-0.06,-1.03,-0.21,-0.37,-11.94,-4.73,30.13
50947,-0.06,-1.01,-0.23,0.14,-9.37,-3.89,30.08
50957,-0.06,-0.98,-0.23,-0.93,-9.21,-3.28,30.08
50967,-0.07,-0.98,-0.23,-2.43,-9.19,-2.11,29.99
50977,-0.07,-0.98,-0.22,-3.21,-9.69,-1.07,30.08
50987,-0.06,-0.99,-0.22,-3.56,-8.43,0.79,30.08
50997,-0.05,-0.99,-0.21,-2.79,-7.42,1.83,30.08
51007,-0.02,-0.99,-0.22,-1.02,-6.78,2.15,30.04
51017,0.01,-1.00,-0.21,1.04,-4.70,1.30,30.04
51027,0.05,-0.98,-0.21,2.90,-2.23,-1.25,30.04
51037,0.07,-0.96,-0.20,6.05,0.11,-6.44,30.13
51047,0.12,-0.95,-0.19,10.96,1.40,-14.34,30.04
51057,0.16,-0.95,-0.21,16.15,6.69,-25.18,30.13
51067,0.13,-0.93,-0.24,16.75,7.01,-34.98,30.08
51077,0.09,-0.90,-0.27,12.20,4.14,-40.63,30.08
51087,0.03,-0.90,-0.28,4.93,-1.60,-40.08,30.08
51097,-0.01,-0.93,-0.28,-5.48,-3.04,-34.41,30.08
51107,-0.04,-0.95,-0.28,-13.45,-3.36,-26.53,30.08
51117,-0.05,-0.98,-0.23,-17.77,-0.29,-18.84,30.18
51127,-0.06,-1.01,-0.18,-19.04,0.87,-13.01,30.13
51137,-0.03,-1.03,-0.16,-15.69,1.33,-9.94,30.13
51147,-0.05,-1.04,-0.15,-10.31,-0.31,-9.51,30.04
51157,-0.05,-1.04,-0.17,-5.76,-1.28,-7.89,30.13
51167,-0.05,-1.03,-0.18,-2.67,-2.50,-4.47,30.18
51177,-0.05,-1.02,-0.22,-0.06,-0.55,0.70,30.22
51187,-0.03,-1.01,-0.24,2.29,3.56,8.40,30.08
51197,-0.03,-1.03,-0.26,3.65,6.18,14.12,30.08
51207,-0.01,-1.04,-0.25,2.89,7.69,16.55,30.08
51217,0.01,-1.07,-0.24,1.80,7.37,17.13,29.99
51227,0.02,-1.08,-0.23,1.44,5.92,15.65,30.08
51237,0.03,-1.09,-0.23,1.89,5.62,13.68,30.13
51247,0.04,-1.09,-0.24,2.49,6.82,13.15,30.13
51257,0.06,-1.09,-0.24,4.46,9.05,13.11,30.13
51267,0.07,-1.10,-0.24,6.56,13.60,13.18,30.13
51277,0.08,-1.11,-0.23,9.39,16.85,12.03,30.13
51287,0.10,-1.11,-0.23,11.18,19.48,9.48,30.13
51297,0.10,-1.09,-0.23,11.98,19.62,6.76,30.18
51307,0.10,-1.08,-0.24,12.95,20.08,3.98,30.08
51317,0.09,-1.05,-0.26,13.95,21.45,2.56,30.08
51327,0.08,-1.04,-0.28,14.56,24.18,3.08,30.08
51337,0.08,-1.03,-0.28,13.71,27.71,4.18,30.08
51347,0.08,-1.01,-0.26,11.80,30.34,3.68,30.08
51357,0.09,-1.01,-0.27,9.11,32.27,1.33,30.13
51367,0.10,-1.00,-0.25,5.76,34.81,-3.66,30.13
51377,0.12,-0.96,-0.25,2.00,36.95,-12.38,30.13
51387,0.15,-0.94,-0.25,-1.65,40.24,-23.15,30.04
51397,0.16,-0.94,-0.23,-3.34,43.34,-33.77,30.04
51407,0.12,-0.95,-0.21,-4.38,45.86,-41.18,30.04
51417,0.08,-0.98,-0.19,-2.09,45.30,-41.86,30.08
51427,0.04,-1.01,-0.18,0.60,47.76,-36.03,30.18
51437,0.05,-1.06,-0.16,5.98,55.51,-27.05,30.08
51447,0.04,-1.10,-0.12,14.70,61.63,-17.51,30.08
51457,0.06,-1.11,-0.11,26.41,66.06,-9.54,30.08
51467,0.10,-1.12,-0.15,37.94,64.52,-3.45,30.18
51477,0.13,-1.12,-0.17,44.32,62.37,-0.38,30.13
51487,0.16,-1.09,-0.21,45.56,62.15,0.34,30.13
51497,0.16,-1.07,-0.24,42.44,61.54,-0.15,30.13
51507,0.14,-1.05,-0.27,35.50,60.47,-1.47,30.22
51517,0.14,-1.02,-0.27,27.02,60.76,-2.58,30.08
51527,0.14,-1.01,-0.26,19.85,59.15,-4.70,30.04
51537,0.14,-1.00,-0.25,15.21,58.12,-6.78,30.18
51547,0.11,-0.98,-0.25,10.98,58.29,-7.28,29.99
51557,0.10,-0.99,-0.24,9.51,58.90,-4.43,30.08
51567,0.08,-1.00,-0.23,9.08,58.95,1.07,30.08
51577,0.08,-1.01,-0.21,7.91,59.71,6.72,30.08
51587,0.10,-1.03,-0.18,8.64,62.29,11.40,30.18
51597,0.11,-1.04,-0.17,9.83,64.26,13.74,30.04
51607,0.13,-1.02,-0.17,10.78,65.53,13.88,30.13
51617,0.13,-1.02,-0.18,10.89,67.62,13.82,30.04
51627,0.13,-0.99,-0.21,8.29,69.33,13.04,30.04
51637,0.12,-0.98,-0.23,3.25,71.16,13.71,29.94
51647,0.15,-0.96,-0.26,-1.51,75.71,16.41,30.08
51657,0.17,-0.96,-0.27,-6.23,84.76,19.42,30.08
51667,0.19,-0.95,-0.25,-7.50,96.90,21.76,30.08
51677,0.17,-0.95,-0.19,-4.12,102.85,21.16,30.08
51687,0.14,-0.94,-0.15,-1.02,101.37,17.51,30.08
51697,0.14,-0.92,-0.12,0.15,98.75,10.20,30.18
51707,0.12,-0.88,-0.11,0.03,89.71,2.49,30.08
51717,0.08,-0.87,-0.12,1.57,80.69,-0.40,29.94
51727,0.06,-0.86,-0.14,4.60,79.08,3.15,30.13
51737,0.06,-0.87,-0.14,6.49,82.09,9.11,30.13
51747,0.05,-0.89,-0.15,8.98,83.07,16.89,30.13
51757,0.05,-0.94,-0.16,11.62,83.88,22.84,30.04
51767,0.05,-1.00,-0.15,14.06,83.30,27.69,30.04
51777,0.07,-1.05,-0.15,16.20,82.21,31.71,30.08
51787,0.10,-1.07,-0.15,17.66,83.62,33.69,30.08
51797,0.12,-1.08,-0.15,21.36,86.18,33.16,30.18
51807,0.15,-1.09,-0.16,26.37,88.32,30.60,30.18
51817,0.16,-1.06,-0.19,30.72,91.77,26.55,30.08
51827,0.15,-1.04,-0.21,34.34,96.38,21.50,30.18
51837,0.12,-1.01,-0.23,33.97,96.08,15.62,30.13
51847,0.09,-0.99,-0.25,30.92,97.62,9.97,30.13
51857,0.07,-0.98,-0.27,27.22,101.05,6.79,30.04
51867,0.04,-0.98,-0.26,22.72,101.97,4.00,30.13
51877,0.03,-0.99,-0.24,20.12,102.90,1.08,30.04
51887,0.01,-0.98,-0.22,17.88,104.37,-3.50,30.13
51897,-0.00,-0.98,-0.21,16.99,102.40,-9.92,30.08
51907,-0.00,-1.01,-0.21,16.11,102.53,-16.53,30.08
51917,-0.03,-1.02,-0.18,13.85,101.15,-23.73,30.08
51927,-0.02,-1.03,-0.17,12.56,100.08,-28.26,30.08
51937,-0.03,-1.05,-0.15,10.00,98.56,-31.18,30.08
51947,-0.02,-1.05,-0.15,10.53,97.66,-31.97,30.18
51957,-0.03,-1.03,-0.16,13.30,102.78,-29.28,30.13
51967,-0.02,-1.03,-0.18,16.99,108.31,-25.86,30.13
51977,-0.05,-1.04,-0.16,18.63,112.43,-24.20,30.04
51987,-0.10,-1.06,-0.17,19.21,111.02,-21.86,30.22
51997,-0.14,-1.05,-0.18,18.61,106.85,-16.61,30.08
52007,-0.16,-1.03,-0.18,15.50,102.06,-9.22,30.04
52017,-0.15,-0.99,-0.19,9.74,98.49,-0.49,30.08
52027,-0.10,-0.96,-0.16,7.07,102.38,9.13,30.08
52037,-0.06,-0.96,-0.16,6.44,103.05,14.84,30.08
52047,-0.05,-0.97,-0.14,6.05,102.75,17.89,30.18
52057,-0.02,-0.97,-0.12,7.56,104.09,20.72,30.08
52067,-0.01,-0.97,-0.11,8.34,104.87,22.11,30.18
52077,0.00,-0.98,-0.07,7.45,106.27,21.51,30.13
52087,-0.02,-0.97,-0.04,7.11,105.62,20.17,30.13
52097,-0.03,-0.97,-0.05,8.81,102.43,19.08,30.13
52107,-0.01,-0.95,-0.03,12.08,101.94,19.57,30.04
52117,-0.03,-0.91,-0.05,19.11,103.71,20.92,30.13
52127,-0.02,-0.88,-0.09,28.00,106.99,23.22,30.18
52137,-0.01,-0.86,-0.14,35.98,114.64,27.68,30.08
52147,-0.04,-0.84,-0.16,42.85,111.65,30.20,30.18
52157,-0.02,-0.85,-0.19,48.37,115.04,32.63,30.08
52167,-0.02,-0.89,-0.20,52.02,117.92,29.95,30.08
52177,-0.04,-0.94,-0.17,51.79,117.36,22.98,30.18
52187,-0.08,-0.96,-0.14,50.96,112.38,13.73,30.18
52197,-0.14,-1.00,-0.10,48.87,107.27,8.58,30.13
52207,-0.15,-1.05,-0.06,48.50,104.90,8.78,30.13
52217,-0.16,-1.09,-0.03,47.50,106.75,12.09,30.13
52227,-0.15,-1.12,0.01,45.63,110.64,15.11,30.04
52237,-0.14,-1.14,0.07,44.72,111.88,13.94,30.13
52247,-0.12,-1.11,0.08,45.36,112.92,10.84,30.13
52257,-0.14,-1.09,0.06,46.09,113.63,8.00,30.08
52267,-0.16,-1.08,0.03,46.96,113.18,7.50,30.18
52277,-0.18,-1.08,0.02,45.45,112.70,7.01,30.18
52287,-0.19,-1.06,0.01,41.16,111.91,4.67,30.08
52297,-0.20,-1.01,-0.00,32.96,108.58,0.29,30.18
52307,-0.23,-0.97,-0.02,23.54,103.39,-4.56,29.99
52317,-0.24,-0.94,-0.04,14.66,97.83,-10.06,29.99
52327,-0.25,-0.91,-0.02,5.13,88.60,-16.12,30.13
52337,-0.28,-0.93,-0.01,-3.24,79.97,-20.61,30.13
52347,-0.29,-0.97,0.01,-12.02,71.74,-22.09,30.04
52357,-0.30,-1.03,0.05,-23.15,65.89,-21.22,30.13
52367,-0.28,-1.07,0.10,-33.24,61.92,-21.05,30.13
52377,-0.24,-1.11,0.11,-40.50,57.05,-25.24,30.22
52387,-0.23,-1.12,0.07,-46.84,52.05,-32.53,30.08
52397,-0.20,-1.10,0.04,-51.40,48.09,-36.70,30.08
52407,-0.19,-1.07,0.06,-52.32,43.53,-36.93,30.08
52417,-0.16,-1.04,0.03,-49.83,41.76,-35.31,30.08
52427,-0.12,-1.01,-0.00,-43.16,43.19,-31.82,30.08
52437,-0.12,-1.01,-0.01,-36.49,50.31,-24.69,30.08
52447,-0.12,-1.03,0.01,-26.43,56.89,-13.04,30.04
52457,-0.10,-1.03,0.03,-16.17,63.31,-0.52,30.13
52467,-0.09,-1.05,0.04,-9.01,71.59,11.11,30.04
52477,-0.08,-1.10,0.04,-4.23,78.90,19.50,30.13
52487,-0.06,-1.17,0.07,-3.36,81.07,18.49,30.13
52497,-0.03,-1.18,0.10,-3.48,77.53,6.40,30.04
52507,-0.04,-1.20,0.09,-2.72,71.37,-9.16,30.08
52517,-0.08,-1.20,0.09,-2.00,62.34,-25.76,30.08
52527,-0.14,-1.15,0.08,-1.36,58.09,-35.24,30.08
52537,-0.18,-1.07,0.08,0.46,57.39,-38.23,30.08
52547,-0.27,-1.01,0.08,0.76,57.94,-35.45,30.08
52557,-0.38,-0.99,0.06,1.15,58.56,-23.91,30.08
52567,-0.48,-1.01,0.08,0.67,55.54,-8.61,30.18
52577,-0.50,-1.00,0.10,-1.59,50.41,3.24,30.04
52587,-0.45,-0.98,0.09,-7.95,45.88,8.08,30.04
52597,-0.40,-0.94,0.08,-15.98,39.66,6.46,30.04
52607,-0.37,-0.92,0.06,-23.79,30.76,5.15,30.04
52617,-0.36,-0.93,0.03,-32.53,21.56,7.63,30.04
52627,-0.33,-0.96,0.05,-40.46,13.97,12.53,30.13
52637,-0.28,-1.01,0.07,-45.80,15.97,19.21,30.08
52647,-0.23,-1.04,0.10,-47.31,18.96,24.78,30.18
52657,-0.19,-1.04,0.13,-42.66,24.78,26.90,30.18
52667,-0.19,-1.02,0.12,-32.03,26.64,27.47,30.08
52677,-0.19,-1.04,0.09,-18.92,27.89,28.90,30.18
52687,-0.20,-1.08,0.09,-11.27,25.62,28.44,30.18
52697,-0.16,-1.10,0.08,-10.02,22.96,23.33,30.13
52707,-0.13,-1.06,0.09,-12.34,22.03,15.79,30.13
52717,-0.11,-1.03,0.07,-12.03,20.84,7.88,30.13
52727,-0.12,-0.99,0.04,-9.21,17.66,2.49,30.13
52737,-0.14,-0.97,0.03,-2.67,17.36,7.45,30.08
52747,-0.17,-0.96,0.01,6.02,18.96,19.59,30.13
52757,-0.19,-1.01,0.01,9.98,25.07,32.21,30.08
52767,-0.21,-1.05,0.06,9.25,28.49,38.44,30.18
52777,-0.17,-1.06,0.07,6.24,29.74,35.95,30.18
52787,-0.13,-1.05,0.07,3.11,23.71,25.25,30.08
52797,-0.12,-1.04,0.04,2.93,14.79,12.26,30.08
52807,-0.14,-1.05,0.02,2.47,6.53,2.38,30.18
52817,-0.14,-1.09,0.04,0.24,0.56,-5.21,30.04
52827,-0.12,-1.08,0.03,-4.35,-2.14,-11.28,30.04
52837,-0.09,-1.09,0.03,-8.46,-2.87,-14.27,30.22
52847,-0.04,-1.11,0.02,-8.40,-0.58,-14.18,30.13
52857,-0.02,-1.13,0.02,-5.68,1.97,-14.53,30.13
52867,-0.03,-1.15,0.02,-2.46,2.61,-15.92,30.08
52877,-0.07,-1.16,0.05,-2.98,1.34,-20.43,30.08
52887,-0.04,-1.15,0.06,-4.09,-0.67,-27.51,30.08
52897,-0.07,-1.11,0.04,-5.76,-1.54,-33.42,30.18
52907,-0.08,-1.07,0.01,-6.09,-2.73,-35.85,30.08
52917,-0.12,-1.04,-0.01,-6.67,-2.96,-31.98,30.18
52927,-0.12,-1.03,-0.00,-7.79,-2.05,-24.96,30.08
52937,-0.11,-1.03,0.01,-8.76,0.12,-17.80,30.13
52947,-0.08,-1.05,0.04,-8.84,1.83,-13.16,30.13
52957,-0.08,-1.05,0.06,-8.05,1.77,-13.18,30.13
52967,-0.09,-1.05,0.06,-7.28,-2.06,-13.89,30.13
52977,-0.10,-1.05,0.07,-7.18,-5.76,-14.29,30.13
52987,-0.11,-1.05,0.06,-7.08,-7.51,-11.86,30.13
52997,-0.11,-1.06,0.07,-7.68,-6.72,-7.68,30.18
53007,-0.11,-1.06,0.07,-6.06,-5.27,-1.54,30.08
53017,-0.09,-1.06,0.05,-3.66,-0.73,4.53,30.08
53027,-0.05,-1.06,0.05,-1.94,1.79,8.15,30.18
53037,-0.03,-1.05,0.06,-1.21,1.40,8.08,30.18
53047,-0.03,-1.05,0.06,-1.60,-1.59,5.66,30.13
53057,-0.02,-1.05,0.06,-2.70,-4.20,2.66,30.13
53067,-0.01,-1.06,0.06,-3.44,-5.50,-0.78,30.13
53077,-0.02,-1.04,0.08,-3.19,-6.23,-3.10,30.13
53087,-0.03,-1.03,0.04,-1.88,-5.76,-2.78,30.08
53097,-0.05,-1.02,0.05,-0.20,-5.59,-0.32,30.13
53107,-0.06,-1.02,0.04,1.19,-4.67,4.55,30.08
53117,-0.05,-1.02,0.03,1.34,-4.08,8.82,30.18
53127,-0.03,-1.02,0.03,0.89,-2.92,12.40,30.08
53137,-0.01,-1.01,0.02,0.17,-1.83,13.39,30.08
53147,0.02,-1.02,0.01,-0.43,-1.31,13.10,30.08
53157,0.03,-1.02,0.02,-1.24,-0.55,11.21,30.08
53167,0.04,-1.03,0.03,-1.97,-0.75,6.12,30.08
53177,0.04,-1.02,0.03,-2.75,-1.53,1.15,30.04
53187,0.02,-1.01,0.02,-3.13,-3.15,-2.06,30.13
53197,-0.00,-1.04,0.02,-3.24,-3.30,-1.98,30.13
53207,-0.01,-1.03,0.03,-2.52,-1.37,1.11,30.13
53217,-0.00,-1.04,0.03,-1.60,1.88,5.11,30.08
53227,0.01,-1.05,0.02,0.24,5.36,8.73,30.08
53237,0.03,-1.05,0.03,1.74,6.96,8.79,30.18
53247,0.04,-1.05,0.02,1.77,6.85,4.63,29.99
53257,0.04,-1.03,0.03,0.95,5.39,-0.99,30.08
53267,0.03,-1.01,0.03,0.29,2.82,-6.87,30.08
53277,0.01,-1.00,0.03,0.35,2.06,-10.43,29.99
53287,-0.02,-1.00,0.03,-0.24,2.20,-11.24,30.04
53297,-0.04,-0.99,0.04,-0.02,3.86,-9.40,30.22
53307,-0.05,-0.99,0.05,-0.32,5.16,-6.81,30.04
53317,-0.06,-0.97,0.06,1.05,5.74,-3.19,30.13
53327,-0.09,-0.97,0.06,3.02,5.73,0.87,30.13
53337,-0.10,-0.97,0.05,3.83,6.14,6.99,30.04
53347,-0.10,-0.96,0.05,3.62,6.56,12.18,30.08
53357,-0.09,-0.97,0.04,2.31,8.26,15.19,30.08
53367,-0.08,-0.97,0.05,-0.66,8.92,16.21,30.08
53377,-0.08,-0.97,0.06,-2.81,7.88,15.79,30.08
53387,-0.08,-0.99,0.06,-4.35,6.32,14.61,30.08
53397,-0.08,-1.01,0.07,-5.42,3.36,13.13,30.08
53407,-0.06,-1.02,0.07,-6.26,1.98,11.15,30.04
53417,-0.04,-1.04,0.07,-6.78,1.42,7.77,30.13
53427,-0.02,-1.06,0.07,-6.95,1.02,4.00,30.13
53437,-0.03,-1.06,0.08,-6.37,0.90,0.49,29.99
53447,-0.04,-1.06,0.06,-3.71,2.50,-1.45,30.13
53457,-0.05,-1.07,0.08,0.14,2.17,-2.58,30.04
53467,-0.04,-1.06,0.06,1.22,3.92,-3.27,30.08
53477,-0.04,-1.03,0.06,2.08,4.43,-4.12,30.08
53487,-0.05,-1.03,0.06,1.51,4.64,-4.24,30.08
53497,-0.06,-1.02,0.05,-0.09,4.98,-4.49,30.18
53507,-0.06,-1.02,0.05,-2.37,4.09,-4.64,30.08
53517,-0.07,-1.02,0.06,-4.29,2.55,-5.11,30.13
53527,-0.08,-1.03,0.08,-4.50,1.37,-5.47,30.13
53537,-0.08,-1.05,0.07,-2.90,0.92,-4.85,29.94
53547,-0.07,-1.05,0.08,-1.92,1.62,-3.28,30.04
53557,-0.07,-1.05,0.07,-1.40,2.08,-2.40,30.13
53567,-0.08,-1.06,0.08,-2.03,0.87,-0.85,30.08
53577,-0.10,-1.05,0.08,-2.23,-0.73,1.01,30.08
53587,-0.12,-1.04,0.12,0.72,-1.56,5.88,30.08
53597,-0.13,-1.02,0.10,6.32,0.89,14.00,30.08
53607,-0.12,-1.00,0.05,10.44,5.57,24.18,30.08
53617,-0.12,-1.00,0.03,9.40,8.50,32.21,29.99
53627,-0.11,-1.00,0.04,4.21,7.13,35.10,30.08
53637,-0.07,-1.01,0.07,-1.76,4.76,31.94,30.13
53647,-0.03,-1.03,0.07,-6.37,-0.38,22.81,30.13
53657,-0.01,-1.04,0.07,-9.80,-5.48,11.33,30.13
53667,0.01,-1.04,0.06,-11.13,-9.71,0.55,30.04
53677,0.02,-1.04,0.07,-13.01,-11.82,-7.97,30.13
53687,0.02,-1.05,0.07,-13.98,-11.13,-13.45,30.13
53697,0.01,-1.06,0.06,-12.63,-8.41,-16.70,30.08
53707,0.00,-1.06,0.07,-9.39,-5.44,-17.82,30.18
53717,-0.02,-1.05,0.06,-5.16,-3.16,-16.82,30.18
53727,-0.05,-1.03,0.05,-2.38,-1.56,-14.47,30.18
53737,-0.07,-1.01,0.04,-0.70,0.73,-11.07,30.08
53747,-0.09,-0.99,0.04,-0.17,2.73,-7.73,30.04
53757,-0.09,-0.98,0.05,-0.37,4.50,-4.90,30.04
53767,-0.10,-0.98,0.05,-0.87,4.41,-3.34,30.04
53777,-0.12,-0.99,0.05,-1.95,2.75,-2.02,30.13
53787,-0.12,-0.98,0.05,-3.36,1.42,-0.43,30.18
53797,-0.12,-1.00,0.06,-5.66,0.20,1.01,30.13
53807,-0.10,-1.02,0.06,-8.05,-1.04,1.98,30.08
53817,-0.08,-1.04,0.08,-8.98,-1.66,1.88,30.08
53827,-0.07,-1.05,0.09,-8.05,-2.05,1.57,30.18
53837,-0.05,-1.05,0.09,-5.34,-2.18,2.31,30.08
53847,-0.04,-1.04,0.07,-2.79,-1.04,2.99,30.18
53857,-0.04,-1.04,0.06,-1.42,0.08,3.21,29.99
53867,-0.05,-1.03,0.05,-1.85,0.40,2.56,30.18
53877,-0.04,-1.03,0.04,-2.67,0.41,1.56,30.13
53887,-0.04,-1.03,0.03,-3.92,-0.52,0.95,30.13
53897,-0.04,-1.03,0.04,-4.76,-0.40,0.60,30.13
53907,-0.02,-1.03,0.04,-4.78,0.11,-0.67,30.13
53917,-0.02,-1.02,0.05,-4.82,0.27,-2.98,30.08
53927,-0.02,-1.01,0.02,-5.08,-0.47,-5.37,30.08
53937,-0.03,-1.01,0.03,-5.74,-0.69,-5.77,30.08
53947,-0.05,-1.01,0.03,-5.97,-0.08,-4.02,30.08
53957,-0.05,-1.02,0.05,-6.99,0.95,-1.51,30.08
53967,-0.06,-1.04,0.07,-7.57,1.92,0.95,30.18
53977,-0.06,-1.05,0.07,-6.55,2.52,2.18,30.18
53987,-0.06,-1.06,0.10,-5.50,2.66,1.01,30.13
