Timestamp,Acce_X,Acce_Y,Acce_Z,Gyro_X,Gyro_Y,Gyro_Z,Temp
39877,-0.10,-0.91,-0.05,-6.34,4.49,-4.70,32.15
39887,-0.12,-0.94,-0.03,-11.83,0.96,-4.75,31.97
39897,-0.12,-0.95,-0.01,-15.19,-0.61,-6.05,32.11
39907,-0.12,-0.96,0.02,-15.10,-0.63,-7.69,32.15
39917,-0.12,-0.98,0.04,-12.00,-0.70,-8.29,32.11
39927,-0.10,-0.96,0.05,-9.89,0.35,-8.58,32.01
39937,-0.10,-0.96,0.05,-8.85,1.33,-6.67,32.11
39947,-0.14,-0.99,0.04,-8.12,1.22,-3.71,32.11
39957,-0.17,-1.03,0.07,-9.11,-0.18,-3.02,32.11
39967,-0.21,-1.07,0.12,-9.97,-4.98,-4.99,32.11
39977,-0.23,-1.11,0.16,-8.69,-13.19,-10.23,32.11
39987,-0.27,-1.15,0.17,-6.75,-20.98,-18.58,32.11
39997,-0.31,-1.16,0.20,-7.37,-30.21,-30.72,32.20
40007,-0.37,-1.15,0.23,-6.85,-43.11,-39.13,32.20
40017,-0.42,-1.14,0.17,-3.45,-56.72,-42.14,32.15
40027,-0.44,-1.14,0.14,-0.35,-63.97,-38.15,32.15
40037,-0.43,-1.18,0.15,2.15,-71.86,-32.70,32.06
40047,-0.37,-1.18,0.18,4.17,-77.69,-32.50,32.15
40057,-0.33,-1.18,0.18,7.73,-85.94,-33.85,32.06
40067,-0.27,-1.17,0.14,12.84,-88.31,-37.24,32.06
40077,-0.23,-1.18,0.11,21.66,-89.71,-42.58,32.15
40087,-0.20,-1.10,0.02,26.40,-90.06,-48.53,32.15
40097,-0.15,-0.97,-0.08,23.86,-84.66,-49.63,32.06
40107,-0.13,-0.91,-0.10,15.63,-85.34,-50.85,32.11
40117,-0.20,-0.90,-0.11,3.39,-96.35,-56.40,32.20
40127,-0.29,-0.88,-0.05,-9.16,-119.02,-56.79,32.01
40137,-0.26,-0.90,-0.09,-13.91,-127.10,-56.17,32.11
40147,-0.26,-0.89,-0.14,-22.84,-134.56,-48.15,32.11
40157,-0.25,-0.85,-0.14,-33.59,-129.80,-31.22,32.11
40167,-0.23,-0.84,-0.12,-34.82,-119.15,-9.28,32.11
40177,-0.18,-0.88,-0.10,-30.92,-103.47,12.55,32.11
40187,-0.15,-0.97,-0.05,-25.07,-89.54,29.27,32.11
40197,-0.13,-1.05,-0.01,-20.27,-82.73,39.92,32.11
40207,-0.11,-1.12,0.06,-15.74,-81.88,42.89,32.11
40217,-0.05,-1.16,0.10,-6.66,-83.04,42.78,31.97
40227,0.01,-1.17,0.06,2.66,-79.94,34.92,32.15
40237,0.04,-1.18,0.03,7.73,-77.18,22.38,32.06
40247,0.06,-1.15,-0.01,8.37,-78.18,9.13,32.06
40257,0.07,-1.11,-0.07,2.66,-79.74,-3.60,32.06
40267,0.02,-1.07,-0.11,-3.80,-82.66,-12.31,32.06
40277,-0.02,-1.05,-0.11,-10.85,-85.74,-15.79,32.06
40287,-0.05,-1.03,-0.10,-15.79,-89.71,-15.19,32.06
40297,-0.06,-1.00,-0.09,-17.22,-89.36,-8.89,32.06
40307,-0.07,-1.02,-0.07,-15.88,-84.96,-0.76,32.06
40317,-0.06,-1.03,-0.05,-11.40,-79.22,5.94,32.01
40327,-0.04,-1.04,-0.01,-7.01,-73.21,8.56,32.11
40337,-0.03,-1.08,0.02,-3.50,-73.59,4.63,32.11
40347,-0.03,-1.10,0.05,0.38,-76.49,-3.40,32.01
40357,-0.03,-1.07,0.03,3.40,-81.04,-13.08,32.11
40367,-0.08,-1.06,0.03,4.70,-87.45,-24.87,32.11
40377,-0.12,-1.02,0.03,4.15,-97.42,-32.26,32.11
40387,-0.15,-0.96,-0.05,5.59,-101.11,-31.92,32.01
40397,-0.20,-0.91,-0.11,3.45,-99.89,-24.64,32.11
40407,-0.22,-0.88,-0.14,0.14,-96.61,-11.62,32.11
40417,-0.24,-0.88,-0.15,-3.57,-94.43,2.89,32.11
40427,-0.23,-0.89,-0.16,-6.89,-88.03,16.21,32.06
40437,-0.17,-0.92,-0.13,-7.44,-85.22,24.70,32.15
40447,-0.11,-0.99,-0.11,-8.20,-85.24,27.01,32.15
40457,-0.06,-1.01,-0.05,-14.52,-94.75,23.47,32.15
40467,-0.06,-1.02,-0.03,-14.05,-96.75,20.43,32.15
40477,-0.06,-1.06,-0.06,-11.07,-98.47,21.42,32.06
40487,-0.06,-1.05,-0.07,-6.23,-94.14,25.69,32.01
40497,-0.05,-1.04,-0.07,1.34,-82.67,32.32,32.06
40507,-0.06,-1.01,-0.08,7.62,-72.32,40.27,32.06
40517,-0.06,-1.03,-0.11,15.57,-65.40,50.15,32.11
40527,-0.07,-1.02,-0.17,11.63,-56.90,57.59,32.11
40537,-0.09,-1.06,-0.12,2.21,-48.73,64.41,32.11
40547,-0.07,-1.08,-0.15,-6.85,-47.25,69.97,32.11
40557,-0.07,-1.04,-0.14,-14.89,-45.05,74.76,32.01
40567,0.01,-1.03,-0.14,-13.85,-44.11,75.34,32.01
40577,0.06,-1.03,-0.15,-10.47,-40.79,68.76,32.11
40587,0.08,-1.03,-0.16,-6.76,-44.26,55.80,32.11
40597,0.11,-1.05,-0.19,-9.53,-49.79,39.16,32.06
40607,0.11,-1.06,-0.19,-14.41,-58.06,22.34,32.06
40617,0.08,-1.05,-0.17,-18.70,-66.89,8.29,32.15
40627,0.04,-1.05,-0.14,-20.90,-72.52,-2.05,32.06
40637,0.02,-1.05,-0.08,-18.29,-74.23,-10.09,32.06
40647,0.02,-1.03,-0.04,-12.05,-72.15,-17.68,32.06
40657,0.01,-0.99,-0.03,-7.39,-67.31,-25.25,32.20
40667,-0.02,-0.92,-0.05,-7.30,-64.17,-32.95,32.15
40677,-0.11,-0.88,-0.06,-10.15,-65.18,-36.38,32.06
40687,-0.19,-0.87,-0.10,-11.37,-68.72,-31.76,32.11
40697,-0.23,-0.90,-0.10,-13.39,-69.05,-20.53,32.11
40707,-0.21,-0.92,-0.09,-14.60,-66.89,-7.18,32.11
40717,-0.14,-0.93,-0.07,-13.54,-61.30,1.05,32.11
40727,-0.07,-0.93,-0.05,-13.80,-60.69,0.15,32.11
40737,-0.03,-0.94,-0.03,-15.25,-61.57,-7.59,32.11
40747,-0.11,-0.95,-0.01,-19.74,-72.72,-14.38,32.20
40757,-0.17,-0.99,-0.04,-22.09,-78.24,-9.77,32.11
40767,-0.17,-1.05,-0.04,-22.03,-74.52,1.86,32.11
40777,-0.06,-1.09,-0.05,-19.57,-60.14,9.88,32.06
40787,0.00,-1.10,0.03,-18.79,-52.53,9.45,32.15
40797,0.01,-1.09,0.06,-12.87,-53.25,1.71,32.15
40807,0.02,-1.08,0.01,-6.93,-57.88,-8.58,32.15
40817,0.04,-1.03,-0.06,-8.44,-64.02,-20.43,32.06
40827,-0.00,-0.99,-0.12,-20.64,-68.05,-31.01,32.06
40837,-0.09,-1.00,-0.09,-31.98,-74.27,-32.95,32.15
40847,-0.14,-1.02,-0.07,-35.42,-76.21,-26.82,32.06
40857,-0.22,-1.05,-0.03,-29.30,-88.40,-10.15,32.06
40867,-0.11,-1.08,-0.02,-26.79,-60.27,-5.16,32.01
40877,-0.05,-1.09,0.02,-18.73,-49.89,0.31,32.11
40887,-0.00,-1.08,0.03,-11.89,-47.08,-3.07,32.11
40897,0.02,-1.04,0.01,-8.90,-51.10,-12.50,32.11
40907,-0.02,-0.97,-0.04,-13.42,-60.23,-24.61,32.01
40917,-0.15,-0.96,-0.07,-18.95,-73.51,-23.80,32.11
40927,-0.18,-0.99,-0.11,-22.29,-74.76,-10.58,32.11
40937,-0.17,-1.04,-0.09,-20.85,-64.32,4.98,32.11
40947,-0.11,-1.06,0.02,-15.27,-53.59,17.18,32.01
40957,-0.08,-1.07,0.04,-7.08,-46.49,22.84,32.01
40967,-0.05,-1.07,0.02,2.72,-44.11,22.95,32.11
40977,0.02,-1.04,-0.04,6.67,-45.53,15.66,32.06
40987,0.06,-0.98,-0.12,1.30,-47.57,2.44,32.06
40997,0.07,-0.96,-0.15,-8.60,-54.63,-10.24,32.15
41007,-0.05,-0.93,-0.13,-19.76,-65.45,-14.55,32.06
41017,-0.07,-0.94,-0.17,-27.24,-65.04,-12.95,32.06
41027,-0.08,-0.98,-0.13,-29.51,-60.44,-7.07,32.06
41037,-0.09,-1.00,-0.06,-27.71,-54.37,-2.14,32.11
41047,-0.08,-1.02,-0.01,-20.82,-52.14,1.37,32.15
41057,-0.03,-1.02,-0.03,-14.41,-49.15,0.87,32.06
41067,0.03,-0.99,-0.08,-10.43,-47.02,-5.34,32.01
41077,0.04,-0.94,-0.11,-13.33,-48.34,-15.53,32.01
41087,-0.02,-0.92,-0.15,-23.22,-53.95,-22.72,32.11
41097,-0.07,-0.93,-0.15,-35.15,-59.71,-22.37,32.11
41107,-0.12,-0.96,-0.12,-40.72,-60.61,-16.37,32.11
41117,-0.10,-0.98,-0.05,-38.90,-55.53,-6.92,32.11
41127,-0.07,-1.02,-0.03,-30.66,-48.61,-0.47,32.11
41137,-0.04,-1.04,0.01,-23.16,-43.77,0.12,32.11
41147,-0.00,-1.03,-0.00,-16.85,-43.18,-3.24,32.11
41157,0.05,-0.99,-0.06,-14.95,-45.59,-11.39,32.11
41167,0.01,-0.95,-0.10,-18.89,-49.74,-22.66,32.06
41177,-0.01,-0.93,-0.13,-26.15,-55.80,-31.15,32.06
41187,-0.06,-0.93,-0.16,-33.16,-62.09,-32.92,31.97
41197,-0.10,-0.93,-0.13,-39.19,-61.10,-31.82,32.06
41207,-0.10,-0.93,-0.10,-40.37,-57.22,-28.00,32.06
41217,-0.09,-0.96,-0.07,-38.34,-53.10,-22.98,32.06
41227,-0.07,-0.97,-0.07,-35.83,-50.73,-20.98,32.15
41237,-0.05,-0.97,-0.06,-33.98,-52.23,-22.50,31.97
41247,-0.03,-0.96,-0.09,-34.06,-55.79,-27.39,32.11
41257,-0.03,-0.96,-0.12,-37.16,-59.22,-31.92,32.06
41267,-0.04,-0.92,-0.12,-39.30,-64.12,-34.21,32.11
41277,-0.09,-0.90,-0.13,-41.24,-67.24,-32.00,32.01
41287,-0.12,-0.93,-0.13,-38.84,-66.92,-22.09,32.01
41297,-0.14,-0.96,-0.12,-35.77,-61.62,-9.66,32.11
41307,-0.12,-0.99,-0.10,-31.37,-56.18,0.93,32.11
41317,-0.09,-1.01,-0.07,-25.10,-53.10,8.43,32.20
41327,-0.05,-0.98,-0.07,-18.12,-56.09,13.10,32.11
41337,-0.02,-0.97,-0.10,-12.41,-53.40,10.46,31.92
41347,0.01,-0.94,-0.18,-11.95,-58.06,8.43,32.01
41357,0.03,-0.92,-0.24,-15.79,-61.79,6.35,32.01
41367,0.02,-0.95,-0.31,-21.02,-66.02,6.78,32.15
41377,0.03,-0.97,-0.34,-27.08,-64.37,9.47,32.15
41387,0.04,-1.00,-0.32,-31.74,-62.93,13.13,32.06
41397,0.05,-1.04,-0.28,-31.65,-58.98,16.81,32.06
41407,0.05,-1.07,-0.23,-29.18,-56.46,18.47,32.06
41417,0.05,-1.09,-0.19,-25.34,-57.47,18.73,32.06
41427,0.07,-1.07,-0.19,-21.59,-56.56,17.34,32.15
41437,0.06,-1.05,-0.20,-19.50,-55.02,15.39,32.06
41447,0.07,-1.03,-0.23,-17.62,-48.40,14.05,31.97
41457,-0.02,-1.01,-0.24,-16.89,-52.49,13.86,32.01
41467,-0.09,-1.00,-0.25,-18.63,-53.94,17.80,32.11
41477,-0.17,-0.99,-0.23,-18.96,-58.89,26.92,32.11
41487,-0.24,-0.99,-0.20,-16.95,-59.10,41.59,32.11
41497,-0.27,-1.04,-0.15,-10.76,-57.27,58.02,32.01
41507,-0.38,-1.04,-0.07,-2.89,-62.81,79.57,32.11
41517,-0.44,-1.07,-0.00,10.34,-66.92,100.60,32.01
41527,-0.46,-1.11,0.00,24.12,-79.98,119.10,32.01
41537,-0.44,-1.16,-0.02,33.08,-98.99,133.45,32.11
41547,-0.31,-1.20,-0.06,39.95,-117.51,143.37,32.11
41557,-0.10,-1.22,-0.12,44.78,-115.92,145.51,32.06
41567,0.05,-1.12,-0.22,49.77,-93.76,142.35,32.15
41577,0.20,-1.08,-0.35,54.90,-59.07,129.62,31.97
41587,0.30,-1.11,-0.36,51.44,-34.40,103.57,32.06
41597,0.29,-1.09,-0.36,39.39,-37.51,72.76,32.15
41607,0.29,-1.04,-0.42,18.47,-44.46,39.77,32.06
41617,0.17,-1.01,-0.37,0.66,-55.66,9.28,32.06
41627,0.07,-0.98,-0.35,-17.95,-61.69,-13.85,32.01
41637,-0.03,-0.96,-0.33,-32.60,-63.92,-27.57,32.15
41647,-0.10,-0.95,-0.28,-39.71,-60.78,-31.31,32.15
41657,-0.18,-0.95,-0.23,-38.81,-55.21,-28.23,32.11
41667,-0.21,-0.92,-0.22,-34.29,-41.66,-20.72,32.11
41677,-0.24,-0.88,-0.22,-28.20,-22.60,-11.57,32.11
41687,-0.22,-0.90,-0.23,-23.36,-5.66,-3.40,32.11
41697,-0.22,-0.93,-0.23,-23.73,2.98,0.69,32.01
41707,-0.28,-0.95,-0.18,-25.71,-1.47,1.42,32.11
41717,-0.31,-0.97,-0.13,-28.46,-11.11,2.14,32.01
41727,-0.31,-0.97,-0.14,-28.90,-16.32,5.51,32.11
41737,-0.30,-0.99,-0.13,-27.22,-14.95,11.33,32.01
41747,-0.27,-1.01,-0.11,-21.10,-11.60,19.85,32.11
41757,-0.22,-1.03,-0.13,-13.05,-4.15,28.02,31.97
41767,-0.14,-1.06,-0.13,-3.65,3.89,31.57,32.06
41777,-0.07,-1.07,-0.17,3.30,10.73,29.19,32.06
41787,-0.05,-1.07,-0.19,2.52,17.57,20.47,32.15
41797,-0.02,-1.06,-0.20,-2.61,20.58,9.71,32.06
41807,-0.06,-1.05,-0.18,-10.53,16.38,-4.27,32.15
41817,-0.12,-1.03,-0.13,-18.20,8.27,-18.53,32.06
41827,-0.21,-1.01,-0.15,-23.77,1.95,-28.23,32.06
41837,-0.29,-0.99,-0.16,-27.65,1.88,-31.98,32.11
41847,-0.36,-1.00,-0.14,-27.22,5.62,-28.58,32.11
41857,-0.42,-1.02,-0.11,-24.93,5.86,-19.88,32.11
41867,-0.43,-1.03,-0.06,-19.83,5.92,-9.83,32.01
41877,-0.41,-1.04,-0.07,-13.65,10.11,-0.20,32.11
41887,-0.38,-1.04,-0.06,-8.31,13.37,5.45,32.11
41897,-0.35,-1.06,-0.04,-4.40,13.39,7.86,32.01
41907,-0.32,-1.07,-0.06,-0.47,12.82,9.39,32.11
41917,-0.29,-1.09,-0.09,2.00,12.95,9.59,32.20
41927,-0.25,-1.10,-0.12,3.65,12.96,9.18,32.11
41937,-0.21,-1.10,-0.15,3.82,12.66,7.07,32.01
41947,-0.19,-1.09,-0.17,3.04,13.50,3.28,32.15
41957,-0.18,-1.08,-0.16,1.37,12.29,-1.18,32.06
41967,-0.20,-1.09,-0.15,0.55,9.22,-5.73,32.06
41977,-0.22,-1.08,-0.16,0.52,6.60,-10.11,32.06
41987,-0.23,-1.06,-0.18,-1.05,5.83,-12.99,32.15
41997,-0.26,-1.07,-0.18,-1.45,4.70,-13.47,32.15
42007,-0.31,-1.08,-0.16,1.02,4.69,-10.08,32.01
42017,-0.31,-1.09,-0.14,6.78,8.06,-3.74,32.06
42027,-0.30,-1.12,-0.10,14.31,9.44,3.57,32.06
42037,-0.24,-1.12,-0.13,22.64,18.35,7.27,32.15
42047,-0.24,-1.11,-0.13,25.92,20.20,7.47,32.11
42057,-0.23,-1.10,-0.12,26.23,18.15,5.95,32.01
42067,-0.22,-1.08,-0.13,21.22,19.79,1.71,32.01
42077,-0.26,-1.03,-0.14,16.78,21.33,-2.18,32.01
42087,-0.32,-0.93,-0.15,9.97,26.00,-1.83,31.92
42097,-0.33,-0.98,-0.13,7.04,23.53,-0.72,32.01
42107,-0.33,-1.01,-0.09,5.42,17.51,1.15,32.01
42117,-0.28,-1.02,-0.09,3.59,16.60,2.64,32.20
42127,-0.26,-1.03,-0.05,6.41,15.63,4.56,32.11
42137,-0.23,-1.04,-0.03,10.21,16.67,6.26,32.01
42147,-0.20,-1.06,-0.02,15.36,17.33,7.18,31.97
42157,-0.18,-1.06,-0.02,19.91,17.21,7.34,32.06
42167,-0.14,-1.05,-0.03,24.37,17.92,7.68,31.97
42177,-0.12,-1.02,-0.09,27.22,22.23,7.02,32.06
42187,-0.12,-1.01,-0.11,28.70,27.11,6.15,32.06
42197,-0.10,-1.02,-0.13,28.63,30.58,4.43,32.06
42207,-0.06,-1.00,-0.17,27.80,35.60,0.93,32.06
42217,-0.01,-1.00,-0.18,25.34,41.98,-5.53,32.11
42227,0.03,-0.99,-0.19,24.35,48.61,-14.53,32.06
42237,0.06,-1.00,-0.22,21.33,54.21,-26.37,32.06
42247,0.03,-0.99,-0.24,16.76,56.66,-40.05,32.15
42257,-0.06,-1.00,-0.20,10.75,49.07,-48.60,32.11
42267,-0.11,-0.99,-0.18,5.95,43.76,-51.44,32.01
42277,-0.14,-0.99,-0.16,3.63,41.74,-48.96,32.01
42287,-0.13,-1.00,-0.15,4.93,45.19,-43.73,32.20
42297,-0.11,-0.99,-0.15,11.83,54.29,-36.46,31.92
42307,-0.07,-0.97,-0.16,19.56,68.20,-29.19,32.01
42317,-0.07,-0.98,-0.16,28.38,79.94,-24.87,32.11
42327,-0.17,-0.95,-0.13,33.50,82.08,-21.62,32.11
42337,-0.29,-0.96,-0.08,40.84,75.04,-14.09,32.11
42347,-0.27,-0.87,-0.06,43.89,76.52,0.95,32.11
42357,-0.30,-0.89,-0.10,55.50,63.62,15.42,32.01
42367,-0.30,-0.91,-0.09,64.82,61.42,30.58,32.06
42377,-0.26,-0.87,-0.13,70.73,58.43,45.36,32.15
42387,-0.22,-0.88,-0.15,79.50,59.51,57.44,32.06
42397,-0.16,-0.89,-0.18,86.56,57.36,65.88,32.06
42407,-0.05,-0.91,-0.23,91.25,58.52,68.02,32.06
42417,0.07,-0.91,-0.32,94.06,65.71,63.28,32.06
42427,0.13,-0.91,-0.41,89.31,79.30,51.57,32.15
42437,0.12,-0.89,-0.44,78.41,88.98,36.06,32.06
42447,0.10,-0.90,-0.42,63.86,90.47,18.76,32.06
42457,0.05,-0.92,-0.39,48.81,88.12,-0.53,32.06
42467,-0.03,-0.95,-0.33,35.62,82.43,-18.02,32.11
42477,-0.13,-0.99,-0.25,26.26,78.24,-29.59,32.11
42487,-0.24,-1.03,-0.18,19.69,76.52,-33.54,32.11
42497,-0.34,-1.06,-0.09,19.16,73.94,-30.46,32.01
42507,-0.40,-1.10,0.01,22.64,75.40,-23.95,32.11
42517,-0.44,-1.13,0.05,28.69,78.06,-16.46,32.11
42527,-0.45,-1.13,0.07,33.28,83.54,-8.64,32.01
42537,-0.47,-1.13,0.07,36.27,89.24,-1.73,32.11
42547,-0.48,-1.14,0.08,37.24,91.85,5.91,32.01
42557,-0.50,-1.14,0.09,37.97,92.43,13.95,32.01
42567,-0.49,-1.15,0.08,41.73,91.07,21.94,32.06
42577,-0.46,-1.15,0.04,44.85,92.03,29.25,32.06
42587,-0.40,-1.16,0.01,47.95,94.24,33.16,32.06
42597,-0.33,-1.15,0.01,47.36,99.27,32.82,32.15
42607,-0.28,-1.14,0.04,44.58,100.38,26.53,32.06
42617,-0.27,-1.15,0.10,45.18,95.22,16.41,32.15
42627,-0.32,-1.13,0.13,49.21,89.82,7.40,32.06
42637,-0.40,-1.12,0.16,55.40,80.46,4.08,32.11
42647,-0.43,-1.09,0.15,62.58,79.13,7.62,32.15
42657,-0.40,-1.06,0.12,74.23,85.48,14.08,32.06
42667,-0.34,-0.99,0.07,83.11,99.42,18.56,32.11
42677,-0.31,-0.92,0.01,90.23,118.72,22.87,32.11
42687,-0.31,-0.90,-0.01,98.31,128.72,28.99,32.01
42697,-0.34,-0.90,-0.02,107.82,131.33,39.66,32.11
42707,-0.36,-0.93,-0.04,117.40,133.80,53.34,32.01
42717,-0.33,-0.93,-0.07,123.01,143.08,66.85,31.92
42727,-0.25,-0.92,-0.12,123.71,152.98,70.76,32.11
42737,-0.27,-0.88,-0.07,113.91,152.08,64.32,32.20
42747,-0.34,-0.91,-0.01,107.68,138.31,57.51,32.11
42757,-0.39,-0.89,-0.01,103.42,126.08,53.05,32.06
42767,-0.38,-0.91,-0.03,97.82,120.44,48.75,32.06
42777,-0.38,-0.92,-0.00,88.41,116.06,41.71,32.06
42787,-0.34,-0.91,0.03,80.08,111.33,31.76,32.06
42797,-0.28,-0.91,0.03,75.48,105.69,15.95,32.15
42807,-0.23,-0.91,0.01,69.83,101.19,-2.82,32.15
42817,-0.20,-0.92,0.01,62.23,95.95,-25.13,32.06
42827,-0.19,-0.94,0.03,55.65,95.31,-49.77,32.06
42837,-0.25,-0.94,0.11,51.34,92.03,-71.44,32.06
42847,-0.38,-0.98,0.16,49.27,89.21,-84.40,32.11
42857,-0.47,-0.98,0.21,54.96,85.97,-87.34,32.11
42867,-0.51,-0.96,0.19,61.36,90.53,-83.24,32.11
42877,-0.54,-0.93,0.18,68.96,98.32,-74.66,32.11
42887,-0.53,-0.88,0.14,77.54,105.63,-64.95,32.01
42897,-0.52,-0.85,0.11,80.15,110.81,-59.11,32.11
42907,-0.48,-0.81,0.06,79.04,108.84,-58.06,32.11
42917,-0.44,-0.78,0.01,70.26,100.41,-63.34,32.01
42927,-0.40,-0.75,-0.02,57.92,93.50,-71.73,32.11
42937,-0.38,-0.74,-0.02,47.65,86.17,-77.19,32.11
42947,-0.38,-0.76,-0.00,43.31,85.40,-78.35,32.11
42957,-0.39,-0.79,0.06,42.43,88.00,-75.63,32.06
42967,-0.41,-0.84,0.11,45.10,89.63,-70.32,32.06
42977,-0.40,-0.87,0.16,50.69,89.59,-65.65,32.06
42987,-0.37,-0.89,0.17,54.72,87.76,-63.08,32.06
42997,-0.35,-0.88,0.15,54.03,82.41,-62.63,32.15
43007,-0.33,-0.87,0.13,51.76,79.39,-60.85,32.06
43017,-0.32,-0.87,0.12,48.60,79.04,-60.29,32.11
43027,-0.31,-0.87,0.12,44.08,80.21,-59.18,32.15
43037,-0.30,-0.89,0.11,41.28,80.37,-55.98,32.15
43047,-0.28,-0.89,0.10,37.36,80.34,-51.31,32.11
43057,-0.26,-0.90,0.12,31.63,80.73,-47.51,32.11
43067,-0.26,-0.91,0.12,25.40,78.18,-43.63,32.11
43077,-0.24,-0.93,0.11,19.28,75.63,-40.26,32.01
43087,-0.21,-0.96,0.11,14.23,73.34,-38.23,32.01
43097,-0.16,-1.01,0.14,11.04,71.31,-38.02,32.11
43107,-0.12,-1.03,0.14,10.56,68.38,-38.98,32.11
43117,-0.08,-1.05,0.15,13.69,66.69,-41.54,32.01
43127,-0.06,-1.06,0.15,17.89,69.16,-43.18,32.01
43137,-0.07,-1.05,0.14,22.99,79.53,-40.08,32.06
43147,-0.09,-1.03,0.10,30.00,100.03,-33.60,31.97
43157,-0.13,-1.03,0.08,34.29,126.60,-31.71,32.06
43167,-0.20,-1.04,0.10,35.94,148.35,-37.60,32.06
43177,-0.31,-1.07,0.18,34.63,152.53,-53.19,32.15
43187,-0.39,-1.08,0.30,32.23,133.13,-72.96,32.06
43197,-0.48,-1.07,0.34,33.44,96.87,-93.05,32.06
43207,-0.51,-1.03,0.30,34.31,69.54,-109.16,32.06
43217,-0.52,-0.99,0.27,33.45,49.01,-119.79,32.06
43227,-0.52,-0.96,0.21,31.28,36.12,-122.14,32.20
43237,-0.49,-0.91,0.14,24.38,34.23,-115.76,32.01
43247,-0.47,-0.88,0.09,15.73,39.42,-102.43,32.11
43257,-0.44,-0.88,0.09,6.75,50.11,-83.83,32.01
43267,-0.40,-0.88,0.09,-0.79,64.43,-64.14,32.01
43277,-0.38,-0.90,0.12,-7.05,77.82,-50.29,31.92
43287,-0.37,-0.96,0.18,-12.50,83.40,-43.69,32.01
43297,-0.38,-1.02,0.24,-15.60,79.19,-43.69,32.11
43307,-0.40,-1.08,0.29,-16.67,68.15,-48.15,32.11
43317,-0.38,-1.11,0.31,-19.63,54.60,-55.27,32.11
43327,-0.37,-1.11,0.34,-22.75,42.38,-62.40,32.11
43337,-0.33,-1.10,0.35,-26.09,35.24,-69.82,32.06
43347,-0.32,-1.07,0.37,-26.34,28.03,-74.56,32.06
43357,-0.30,-1.02,0.34,-20.55,26.56,-74.92,32.06
43367,-0.29,-1.01,0.29,-10.60,27.04,-70.58,32.06
43377,-0.30,-1.01,0.25,-8.14,29.15,-61.97,32.06
43387,-0.29,-1.00,0.21,-8.37,34.89,-49.65,32.06
43397,-0.28,-0.99,0.19,-8.93,42.23,-36.84,32.01
43407,-0.27,-1.01,0.20,-7.16,50.29,-24.49,32.06
43417,-0.25,-1.00,0.21,-5.10,55.05,-14.69,32.06
43427,-0.19,-1.00,0.25,-3.77,56.55,-9.92,32.01
43437,-0.11,-1.01,0.25,0.78,60.73,-7.21,32.01
43447,-0.11,-0.96,0.24,2.38,56.73,-1.56,32.11
43457,-0.06,-0.94,0.16,3.98,66.43,2.50,32.11
43467,-0.10,-0.96,0.14,4.56,72.37,8.34,32.01
43477,-0.13,-0.97,0.15,-2.69,80.73,14.50,32.11
43487,-0.20,-0.99,0.23,-10.24,81.28,21.60,32.11
43497,-0.26,-1.03,0.28,-15.05,79.21,29.50,32.11
43507,-0.30,-1.07,0.34,-16.27,75.71,35.60,32.01
43517,-0.29,-1.09,0.38,-13.65,70.72,38.15,32.15
43527,-0.24,-1.08,0.37,-7.92,65.39,34.31,32.06
43537,-0.17,-1.08,0.34,-5.48,58.58,20.20,32.06
43547,-0.11,-1.08,0.34,-6.56,43.73,0.38,32.06
43557,-0.14,-1.08,0.31,-8.40,21.31,-19.71,32.15
43567,-0.13,-1.06,0.28,-11.76,3.08,-36.12,32.06
43577,-0.17,-1.04,0.28,-14.24,-8.53,-46.73,32.15
43587,-0.20,-1.04,0.30,-18.37,-14.72,-53.89,32.15
43597,-0.23,-0.99,0.33,-18.78,-17.53,-54.50,32.06
43607,-0.25,-0.95,0.30,-11.94,-19.15,-47.60,32.11
43617,-0.25,-0.92,0.23,-2.82,-11.39,-35.51,32.11
43627,-0.26,-0.91,0.18,1.36,2.98,-20.44,32.11
43637,-0.27,-0.91,0.16,-0.79,16.21,-5.45,32.11
43647,-0.27,-0.92,0.20,-6.11,21.31,4.64,32.11
43657,-0.26,-0.94,0.25,-11.08,19.82,9.02,32.20
43667,-0.23,-0.96,0.30,-9.88,12.29,9.27,32.11
43677,-0.18,-0.99,0.31,-4.38,5.68,7.95,32.01
43687,-0.14,-0.99,0.26,-0.67,1.45,6.05,32.01
43697,-0.12,-0.98,0.21,-0.81,2.89,5.73,32.11
43707,-0.14,-0.99,0.17,-4.05,6.15,7.45,32.11
43717,-0.14,-1.00,0.17,-9.45,8.47,9.80,32.06
43727,-0.15,-1.01,0.19,-12.35,8.02,12.38,32.06
43737,-0.15,-1.04,0.20,-12.63,6.93,13.83,32.06
43747,-0.13,-1.03,0.23,-11.24,7.15,14.27,32.06
43757,-0.10,-1.02,0.23,-9.44,8.17,11.94,32.06
43767,-0.09,-1.02,0.24,-7.54,6.02,8.73,32.06
43777,-0.09,-1.01,0.21,-7.16,2.92,6.38,32.11
43787,-0.10,-1.03,0.20,-11.50,0.06,5.02,32.06
43797,-0.11,-1.05,0.25,-16.99,-1.77,3.50,31.97
43807,-0.10,-1.07,0.29,-19.53,-4.84,1.86,32.11
43817,-0.09,-1.07,0.32,-18.11,-5.79,0.61,32.11
43827,-0.06,-1.09,0.32,-12.52,-5.15,-0.96,32.11
43837,-0.02,-1.09,0.31,-5.34,-3.02,-2.37,32.11
43847,0.01,-1.10,0.27,-1.40,-0.95,-4.27,32.11
43857,0.02,-1.09,0.25,-0.87,1.95,-5.63,32.11
43867,-0.01,-1.11,0.27,-3.48,4.08,-7.83,32.11
43877,-0.05,-1.12,0.29,-5.50,3.54,-8.92,32.01
43887,-0.08,-1.14,0.34,-3.76,-0.87,-9.37,32.06
43897,-0.08,-1.14,0.37,0.29,-2.70,-10.52,32.06
43907,-0.08,-1.13,0.37,6.46,-3.71,-12.03,32.06
43917,-0.06,-1.11,0.36,12.79,-3.59,-13.45,32.15
43927,-0.06,-1.07,0.32,15.83,-4.75,-14.31,32.06
43937,-0.04,-1.02,0.27,16.76,-4.34,-14.09,32.06
43947,-0.02,-0.99,0.22,14.73,-1.53,-14.00,32.11
43957,-0.03,-0.99,0.20,11.54,-1.22,-14.58,32.06
43967,-0.03,-0.96,0.20,6.96,-3.88,-14.55,32.15
43977,-0.03,-0.95,0.19,2.66,-7.28,-14.52,32.11
43987,-0.01,-0.96,0.19,-1.31,-9.40,-14.63,32.11
43997,0.00,-0.98,0.19,-3.92,-8.84,-14.64,32.20
44007,0.00,-0.99,0.21,-4.61,-6.95,-14.92,32.01
44017,0.01,-0.99,0.23,-4.08,-6.50,-15.10,32.11
44027,-0.00,-0.99,0.24,-0.61,-7.50,-12.82,32.01
44037,-0.00,-0.96,0.22,2.06,-5.88,-9.80,32.20
44047,0.01,-0.95,0.21,2.87,-1.18,-6.26,32.11
44057,0.00,-0.94,0.20,2.32,4.00,-2.24,32.11
44067,-0.01,-0.95,0.19,1.79,7.01,0.02,32.11
44077,-0.01,-0.96,0.22,-0.20,6.35,0.58,32.15
44087,-0.01,-0.96,0.23,-1.85,4.31,-0.84,32.06
44097,-0.00,-0.95,0.21,-3.50,4.75,-3.86,32.06
44107,-0.01,-0.95,0.23,-6.18,2.64,-8.49,32.06
44117,-0.02,-0.95,0.26,-7.77,-1.53,-11.39,32.06
44127,-0.02,-0.93,0.25,-7.04,-4.00,-12.08,32.06
44137,-0.03,-0.93,0.23,-6.47,-1.36,-11.08,32.06
44147,-0.06,-0.96,0.23,-6.41,-0.35,-8.26,32.15
44157,-0.07,-0.95,0.24,-9.50,-0.95,-4.84,32.01
44167,-0.08,-0.96,0.27,-12.96,-1.73,-2.41,32.11
44177,-0.07,-0.97,0.29,-13.53,-3.07,-1.50,32.11
44187,-0.06,-0.96,0.31,-11.57,-4.26,-1.53,32.11
44197,-0.03,-0.95,0.30,-7.73,-5.21,-1.80,32.11
44207,-0.01,-0.93,0.28,-5.21,-4.37,-2.02,32.11
44217,-0.02,-0.92,0.24,-4.47,-1.07,-1.62,32.01
44227,-0.04,-0.93,0.22,-5.94,0.76,-0.18,32.11
44237,-0.06,-0.94,0.23,-9.21,-0.20,1.59,32.11
44247,-0.07,-0.96,0.24,-11.97,-3.02,2.64,32.06
44257,-0.06,-0.98,0.26,-13.11,-6.14,2.70,31.97
44267,-0.04,-0.98,0.27,-13.31,-9.40,2.58,32.06
44277,-0.02,-0.99,0.24,-13.71,-11.48,1.34,32.06
44287,-0.00,-0.99,0.23,-14.75,-12.99,0.05,32.06
44297,0.00,-0.98,0.23,-16.35,-13.25,-0.96,32.15
44307,0.02,-0.97,0.20,-17.82,-11.79,-1.16,32.15
44317,0.01,-0.99,0.20,-18.87,-9.76,0.34,32.15
44327,-0.01,-1.00,0.21,-21.48,-7.44,2.55,32.11
44337,-0.03,-1.02,0.23,-23.53,-6.40,5.57,32.11
44347,-0.03,-1.04,0.25,-23.80,-5.66,8.41,32.01
44357,-0.03,-1.06,0.28,-23.10,-5.76,10.67,32.11
44367,-0.02,-1.07,0.29,-20.38,-5.68,11.45,32.01
44377,-0.02,-1.07,0.30,-17.27,-6.27,11.71,32.01
44387,0.00,-1.06,0.27,-13.98,-5.22,11.04,32.20
44397,-0.00,-1.06,0.26,-12.20,-3.22,9.50,32.11
44407,-0.01,-1.05,0.27,-10.92,-3.07,8.09,32.11
44417,-0.01,-1.04,0.24,-10.05,-4.92,5.77,32.11
44427,-0.01,-1.04,0.24,-10.52,-7.66,2.64,31.97
44437,-0.02,-1.03,0.23,-11.83,-10.85,-0.41,32.06
44447,-0.02,-1.02,0.22,-15.97,-12.84,-4.09,32.06
44457,-0.03,-1.04,0.24,-20.05,-20.98,-8.79,32.06
44467,-0.03,-1.06,0.18,-24.67,-22.29,-12.85,32.06
44477,-0.07,-1.03,0.23,-33.53,-35.22,-16.14,31.97
44487,-0.05,-1.01,0.09,-36.61,-41.11,-13.97,32.06
44497,-0.01,-0.96,0.10,-42.90,-29.66,-7.34,32.11
44507,-0.03,-0.95,0.09,-43.18,-16.52,0.93,32.06
44517,-0.01,-0.95,0.14,-41.11,-6.99,9.27,32.11
44527,-0.02,-0.97,0.18,-34.76,-4.84,15.16,32.11
44537,-0.03,-1.02,0.19,-28.49,-3.39,18.37,32.11
44547,-0.03,-1.06,0.22,-23.08,-1.42,18.52,32.11
44557,-0.03,-1.09,0.24,-19.39,-0.52,16.35,32.11
44567,-0.03,-1.10,0.29,-14.95,-4.87,11.98,32.01
44577,-0.03,-1.12,0.33,-6.02,-11.80,6.38,32.01
44587,-0.01,-1.11,0.33,4.50,-17.05,0.41,32.11
44597,-0.01,-1.08,0.25,12.52,-17.56,-3.60,32.11
44607,-0.00,-1.04,0.20,16.41,-13.53,-4.95,32.11
44617,-0.02,-1.01,0.16,15.33,-8.99,-4.53,32.15
44627,-0.04,-0.98,0.13,11.21,-6.61,-2.05,32.06
44637,-0.05,-0.97,0.12,6.31,-6.95,0.61,32.15
44647,-0.06,-0.97,0.11,1.79,-8.63,3.13,32.15
44657,-0.06,-0.98,0.12,-2.53,-10.03,4.85,32.15
44667,-0.05,-0.99,0.15,-6.70,-12.08,5.88,32.06
44677,-0.04,-0.99,0.17,-9.40,-14.41,6.72,32.15
44687,-0.03,-1.00,0.18,-9.68,-14.44,7.88,32.06
44697,-0.02,-0.99,0.16,-8.58,-11.83,9.16,32.06
44707,-0.02,-1.01,0.15,-8.06,-9.66,10.23,32.20
44717,-0.02,-1.03,0.17,-9.30,-10.08,10.72,32.11
44727,-0.03,-1.03,0.18,-9.95,-10.93,10.12,32.11
44737,-0.02,-1.03,0.19,-9.40,-11.88,9.21,32.11
44747,-0.01,-1.03,0.19,-7.91,-11.77,8.06,32.11
44757,-0.01,-1.04,0.19,-5.91,-12.41,6.20,32.11
44767,-0.00,-1.04,0.19,-4.61,-13.48,3.34,32.01
44777,0.00,-1.02,0.18,-4.55,-14.47,0.84,32.11
44787,-0.00,-1.00,0.16,-4.41,-14.09,-1.04,32.01
44797,0.00,-1.00,0.16,-4.40,-13.59,-2.32,32.01
44807,0.00,-0.99,0.16,-5.45,-15.21,-2.76,31.97
44817,-0.01,-1.00,0.16,-7.85,-13.24,-3.02,32.15
44827,-0.02,-1.02,0.19,-9.08,-12.24,-3.31,32.15
44837,-0.02,-1.02,0.23,-9.10,-12.26,-2.90,32.06
44847,-0.02,-1.00,0.24,-6.27,-12.89,-1.85,32.15
44857,-0.01,-1.00,0.22,-2.60,-10.73,-1.13,32.06
44867,-0.01,-0.98,0.21,0.79,-7.45,0.32,32.15
44877,-0.01,-0.98,0.18,2.53,-4.15,2.21,32.11
