Timestamp,Acce_X,Acce_Y,Acce_Z,Gyro_X,Gyro_Y,Gyro_Z,Temp
52777,-0.19,-1.09,0.10,9.24,-16.61,20.90,30.55
52787,-0.20,-1.11,0.09,9.94,-21.28,27.48,30.55
52797,-0.21,-1.12,0.10,11.36,-25.40,32.66,30.46
52807,-0.22,-1.16,0.12,13.98,-31.76,34.82,30.55
52817,-0.23,-1.20,0.12,17.21,-36.78,35.36,30.55
52827,-0.23,-1.20,0.14,20.78,-40.56,34.69,30.46
52837,-0.24,-1.20,0.12,23.92,-43.86,35.22,30.55
52847,-0.25,-1.20,0.13,27.24,-47.04,35.36,30.51
52857,-0.23,-1.18,0.12,30.66,-50.11,36.18,30.51
52867,-0.22,-1.18,0.07,31.08,-52.90,34.41,30.51
52877,-0.23,-1.17,0.06,28.18,-53.88,31.77,30.60
52887,-0.27,-1.16,0.06,25.59,-58.98,32.05,30.51
52897,-0.27,-1.14,0.04,24.84,-65.77,33.22,30.55
52907,-0.26,-1.13,0.02,22.78,-70.67,34.14,30.55
52917,-0.24,-1.14,0.02,20.29,-72.67,34.00,30.55
52927,-0.24,-1.15,0.05,17.98,-73.15,31.89,30.46
52937,-0.25,-1.13,0.09,17.77,-78.43,29.11,30.46
52947,-0.26,-1.13,0.07,19.54,-85.57,27.95,30.46
52957,-0.24,-1.12,0.05,21.08,-90.85,27.89,30.41
52967,-0.27,-1.08,0.03,21.85,-97.10,29.04,30.60
52977,-0.27,-1.04,-0.01,20.06,-103.77,32.76,30.51
52987,-0.23,-1.00,-0.06,15.18,-105.82,34.99,30.69
52997,-0.21,-0.98,-0.10,7.34,-107.19,35.77,30.65
53007,-0.20,-0.97,-0.10,-0.96,-109.34,36.09,30.60
53017,-0.21,-0.95,-0.08,-8.31,-110.05,36.40,30.65
53027,-0.19,-0.95,-0.05,-10.41,-115.30,37.85,30.55
53037,-0.19,-0.96,-0.08,-12.66,-120.44,37.92,30.46
53047,-0.19,-0.95,-0.04,-16.31,-119.37,39.16,30.55
53057,-0.19,-0.96,-0.02,-13.54,-122.24,41.86,30.55
53067,-0.16,-0.97,-0.05,-14.40,-122.05,41.37,30.55
53077,-0.17,-0.97,-0.06,-15.47,-120.08,42.20,30.51
53087,-0.19,-0.98,-0.05,-15.33,-120.95,44.72,30.60
53097,-0.17,-0.95,-0.07,-15.15,-121.69,47.92,30.51
53107,-0.16,-0.94,-0.10,-15.79,-122.56,48.32,30.51
53117,-0.15,-0.92,-0.12,-17.71,-123.08,48.78,30.51
53127,-0.13,-0.90,-0.13,-19.13,-123.60,50.37,30.46
53137,-0.12,-0.90,-0.16,-20.63,-124.93,52.78,30.55
53147,-0.10,-0.91,-0.16,-23.18,-123.94,55.16,30.55
53157,-0.07,-0.93,-0.17,-24.67,-120.92,54.87,30.55
53167,-0.07,-0.94,-0.17,-29.15,-119.16,50.44,30.46
53177,-0.09,-0.95,-0.13,-32.69,-121.48,47.69,30.37
53187,-0.10,-0.96,-0.11,-32.31,-125.36,48.21,30.60
53197,-0.09,-0.97,-0.10,-31.31,-127.62,48.02,30.51
53207,-0.07,-0.99,-0.13,-28.47,-128.24,49.94,30.51
53217,-0.04,-1.02,-0.16,-26.90,-122.24,50.40,30.51
53227,-0.02,-1.03,-0.16,-28.34,-120.31,49.01,30.60
53237,-0.01,-1.05,-0.14,-28.67,-118.31,47.40,30.51
53247,0.02,-1.03,-0.11,-28.93,-121.05,42.17,30.55
53257,0.03,-1.06,-0.10,-26.78,-125.33,36.15,30.55
53267,0.07,-1.07,-0.13,-23.66,-125.30,29.50,30.46
53277,0.09,-1.07,-0.11,-22.26,-123.25,19.63,30.55
53287,0.10,-1.08,-0.13,-21.48,-122.72,10.24,30.55
53297,0.07,-1.07,-0.12,-23.57,-122.98,0.95,30.55
53307,0.06,-1.07,-0.11,-24.24,-124.79,-4.73,30.51
53317,0.06,-1.04,-0.11,-25.60,-126.08,-9.62,30.69
53327,0.05,-1.02,-0.13,-27.69,-124.98,-10.34,30.41
53337,0.08,-1.01,-0.13,-29.16,-119.94,-9.74,30.51
53347,0.08,-0.97,-0.11,-31.22,-116.24,-10.73,30.55
53357,0.09,-1.00,-0.14,-30.02,-114.89,-10.09,30.51
53367,0.12,-1.01,-0.13,-30.05,-111.80,-10.35,30.55
53377,0.13,-1.00,-0.10,-29.47,-109.28,-10.75,30.65
53387,0.14,-1.01,-0.10,-29.04,-109.01,-11.79,30.46
53397,0.16,-1.01,-0.10,-27.60,-107.30,-12.60,30.46
53407,0.17,-1.04,-0.10,-27.24,-103.79,-12.69,30.55
53417,0.15,-1.04,-0.07,-27.82,-99.97,-10.69,30.46
53427,0.13,-1.02,-0.06,-26.37,-97.25,-6.79,30.51
53437,0.13,-0.99,-0.10,-27.31,-92.87,-2.95,30.60
53447,0.10,-0.97,-0.09,-33.24,-87.07,2.38,30.51
53457,0.04,-1.00,-0.08,-34.87,-89.42,13.48,30.51
53467,0.04,-1.05,-0.09,-34.67,-87.74,28.32,30.51
53477,0.07,-1.11,-0.11,-32.02,-82.89,42.40,30.55
53487,0.12,-1.15,-0.11,-32.93,-71.97,50.53,30.46
53497,0.16,-1.14,-0.06,-34.41,-63.08,52.69,30.55
53507,0.15,-1.11,-0.06,-33.56,-59.89,53.15,30.55
53517,0.14,-1.09,-0.08,-33.98,-56.72,53.83,30.46
53527,0.10,-1.07,-0.07,-35.28,-53.80,53.07,30.46
53537,0.08,-1.06,-0.06,-37.36,-52.92,50.52,30.51
53547,0.04,-1.09,-0.07,-39.28,-53.66,50.15,30.51
53557,-0.01,-1.11,-0.08,-40.95,-52.63,53.10,30.60
53567,0.00,-1.14,-0.05,-40.47,-53.16,55.33,30.46
53577,-0.00,-1.11,-0.02,-41.04,-52.73,52.90,30.60
53587,0.00,-1.10,0.01,-39.28,-54.09,49.42,30.55
53597,0.01,-1.09,0.01,-36.64,-55.68,42.02,30.46
53607,-0.00,-1.08,-0.00,-34.76,-60.90,32.35,30.46
53617,-0.02,-1.08,-0.01,-33.47,-63.44,25.01,30.46
53627,-0.03,-1.09,-0.03,-33.47,-63.62,21.24,30.55
53637,-0.06,-1.10,-0.03,-34.46,-61.77,20.03,30.55
53647,-0.09,-1.11,-0.04,-34.78,-57.57,20.73,30.51
53657,-0.13,-1.06,0.05,-34.20,-56.52,21.33,30.51
53667,-0.10,-1.07,0.01,-33.85,-49.01,20.34,30.51
53677,-0.11,-1.05,0.01,-30.93,-48.49,19.31,30.51
53687,-0.11,-1.07,-0.04,-27.21,-49.08,16.72,30.51
53697,-0.09,-1.09,-0.07,-28.08,-48.56,12.63,30.55
53707,-0.11,-1.10,-0.07,-32.24,-49.24,9.89,30.55
53717,-0.15,-1.11,-0.03,-35.02,-50.52,7.76,30.65
53727,-0.18,-1.10,-0.01,-34.87,-52.05,6.81,30.55
53737,-0.20,-1.12,0.01,-31.95,-51.56,6.66,30.46
53747,-0.21,-1.08,0.01,-29.76,-51.68,3.80,30.55
53757,-0.24,-1.05,0.02,-26.46,-55.13,6.24,30.60
53767,-0.22,-1.05,-0.02,-23.10,-54.46,10.81,30.51
53777,-0.19,-1.05,-0.07,-22.56,-47.48,12.64,30.60
53787,-0.19,-1.05,-0.05,-24.08,-45.19,12.79,30.55
53797,-0.18,-1.03,-0.07,-26.23,-45.79,11.44,30.41
53807,-0.17,-1.02,-0.06,-27.28,-42.18,10.15,30.46
53817,-0.21,-1.01,-0.02,-26.15,-43.44,9.73,30.55
53827,-0.23,-1.00,-0.03,-24.81,-44.92,11.68,30.55
53837,-0.22,-0.98,-0.00,-22.35,-40.49,13.01,30.55
53847,-0.20,-0.99,-0.03,-20.11,-40.44,12.90,30.55
53857,-0.21,-1.00,-0.04,-19.56,-35.19,12.69,30.55
53867,-0.22,-0.98,-0.03,-18.24,-34.44,13.15,30.55
53877,-0.22,-0.97,-0.03,-17.91,-35.92,12.79,30.60
53887,-0.24,-0.92,-0.02,-16.41,-36.87,14.09,30.60
53897,-0.26,-0.90,-0.04,-14.03,-36.31,16.61,30.60
53907,-0.24,-0.87,-0.04,-13.51,-33.51,17.44,30.51
53917,-0.21,-0.86,-0.05,-15.48,-33.83,14.81,30.65
53927,-0.21,-0.90,-0.06,-18.50,-34.03,12.12,30.55
53937,-0.22,-0.91,-0.06,-20.35,-36.73,11.04,30.55
53947,-0.23,-0.91,-0.04,-22.55,-36.67,11.77,30.55
53957,-0.25,-0.90,-0.01,-21.42,-37.86,14.98,30.55
53967,-0.30,-0.88,0.02,-19.30,-38.38,20.47,30.55
53977,-0.33,-0.87,0.01,-13.69,-39.40,28.85,30.55
53987,-0.31,-0.89,-0.01,-8.63,-37.42,36.79,30.51
53997,-0.27,-0.95,-0.03,-6.78,-38.08,36.56,30.51
54007,-0.24,-1.02,-0.05,-8.41,-40.09,34.21,30.60
54017,-0.20,-1.06,-0.08,-9.98,-41.24,33.08,30.60
54027,-0.15,-1.05,-0.07,-10.96,-38.70,28.79,30.51
54037,-0.14,-1.02,-0.06,-13.21,-33.88,23.15,30.51
54047,-0.16,-1.01,-0.05,-15.05,-30.05,16.15,30.55
54057,-0.19,-1.02,-0.05,-14.32,-29.18,11.71,30.55
54067,-0.21,-1.00,-0.05,-13.77,-28.09,7.21,30.55
54077,-0.22,-1.00,-0.04,-14.93,-26.72,4.92,30.55
54087,-0.24,-1.03,-0.02,-16.44,-24.44,2.21,30.46
54097,-0.28,-1.03,0.02,-15.45,-22.84,-0.27,30.60
54107,-0.30,-1.03,-0.02,-13.16,-22.63,-0.40,30.51
54117,-0.30,-1.03,-0.05,-11.10,-20.08,1.33,30.51
54127,-0.28,-1.02,-0.03,-12.26,-17.77,2.64,30.51
54137,-0.28,-1.02,-0.00,-14.24,-17.25,1.42,30.55
54147,-0.29,-0.95,0.01,-15.13,-17.59,-2.58,30.51
54157,-0.33,-0.96,-0.03,-13.18,-20.85,-2.26,30.46
54167,-0.33,-0.98,-0.07,-13.62,-17.88,-0.55,30.55
54177,-0.34,-1.01,-0.03,-15.92,-18.17,0.60,30.46
54187,-0.34,-1.03,0.01,-17.01,-20.03,2.76,30.46
54197,-0.28,-1.03,0.01,-14.55,-19.82,4.64,30.55
54207,-0.23,-1.02,0.00,-11.85,-15.74,4.05,30.55
54217,-0.21,-1.02,-0.01,-7.85,-12.15,0.38,30.51
54227,-0.22,-1.00,-0.03,-6.27,-11.59,-4.78,30.41
54237,-0.24,-0.99,-0.06,-8.81,-12.27,-9.39,30.51
54247,-0.26,-0.98,-0.07,-13.04,-12.72,-12.32,30.41
54257,-0.29,-0.97,-0.03,-18.23,-13.34,-15.11,30.51
54267,-0.34,-0.98,0.00,-16.05,-16.72,-13.33,30.65
54277,-0.34,-0.99,-0.04,-12.72,-16.41,-6.58,30.55
54287,-0.35,-1.01,-0.01,-8.76,-13.24,0.24,30.55
54297,-0.33,-1.01,0.02,-5.54,-11.05,4.31,30.46
54307,-0.28,-0.99,0.02,-3.79,-9.22,4.32,30.55
54317,-0.26,-0.96,-0.01,-3.80,-8.72,2.17,30.55
54327,-0.26,-0.94,-0.04,-4.21,-8.92,-0.11,30.51
54337,-0.27,-0.94,-0.05,-5.77,-9.85,-1.45,30.51
54347,-0.30,-0.95,-0.05,-8.31,-9.88,-2.21,30.51
54357,-0.34,-0.94,-0.02,-10.85,-11.05,0.72,30.55
54367,-0.34,-0.95,-0.00,-10.75,-10.40,6.23,30.41
54377,-0.31,-0.93,0.02,-8.31,-9.51,10.24,30.55
54387,-0.26,-0.92,-0.00,-5.50,-6.61,12.82,30.55
54397,-0.25,-0.92,0.01,-2.53,-4.87,12.79,30.55
54407,-0.21,-0.91,-0.05,-2.20,-1.15,11.68,30.55
54417,-0.19,-0.92,-0.07,-2.82,1.71,5.42,30.55
54427,-0.20,-0.90,-0.08,-9.11,1.15,-1.77,30.55
54437,-0.24,-0.90,-0.03,-14.47,-2.35,-7.48,30.60
54447,-0.29,-0.91,-0.03,-15.15,-7.28,-8.14,30.60
54457,-0.30,-0.92,-0.02,-14.82,-6.63,-5.31,30.51
54467,-0.31,-0.93,-0.01,-11.80,-4.61,-0.99,30.51
54477,-0.31,-0.92,-0.03,-10.12,-0.35,2.15,30.51
54487,-0.31,-0.93,-0.05,-9.24,1.77,5.07,30.55
54497,-0.27,-0.97,-0.07,-10.70,2.96,6.44,30.55
54507,-0.25,-0.99,-0.05,-13.59,3.85,4.90,30.46
54517,-0.24,-0.98,-0.00,-15.40,1.91,0.53,30.55
54527,-0.24,-0.98,0.01,-14.11,-0.23,-4.46,30.55
54537,-0.26,-0.97,-0.04,-10.08,0.23,-6.50,30.60
54547,-0.27,-0.97,-0.05,-8.14,1.83,-7.19,30.51
54557,-0.28,-0.98,-0.08,-10.56,3.54,-8.03,30.51
54567,-0.30,-0.99,-0.07,-14.40,3.57,-8.47,30.51
54577,-0.32,-1.00,-0.03,-15.22,2.64,-7.86,30.46
54587,-0.33,-1.00,-0.03,-14.38,1.97,-6.12,30.60
54597,-0.33,-1.01,-0.01,-11.34,2.96,-4.38,30.55
54607,-0.33,-1.02,-0.01,-7.50,2.72,-3.57,30.55
54617,-0.32,-1.01,-0.04,-6.02,3.34,-2.75,30.46
54627,-0.32,-1.01,-0.05,-5.98,2.99,-1.69,30.55
54637,-0.31,-1.02,-0.07,-6.46,2.64,0.35,30.46
54647,-0.29,-1.01,-0.05,-7.98,4.08,-1.28,30.41
54657,-0.31,-0.99,-0.02,-8.78,3.07,-5.95,30.51
54667,-0.34,-1.00,-0.04,-6.14,-0.06,-5.04,30.51
54677,-0.34,-1.01,-0.06,-3.33,0.81,-1.76,30.60
54687,-0.33,-1.00,-0.06,-3.37,3.37,0.69,30.51
54697,-0.31,-0.99,-0.04,-4.29,4.55,1.37,30.51
54707,-0.29,-0.98,-0.06,-5.21,5.82,-0.20,30.55
54717,-0.29,-0.97,-0.06,-4.79,6.84,-2.20,30.55
54727,-0.30,-0.95,-0.05,-5.19,5.15,-6.14,30.55
54737,-0.32,-0.96,-0.07,-5.10,1.94,-7.53,30.55
54747,-0.33,-0.96,-0.09,-6.64,2.03,-7.30,30.51
54757,-0.34,-0.95,-0.08,-8.60,3.42,-6.64,30.51
54767,-0.35,-0.96,-0.06,-10.73,2.11,-6.12,30.60
54777,-0.37,-0.97,-0.03,-8.90,0.31,-3.30,30.60
54787,-0.36,-0.98,-0.05,-6.58,1.08,0.29,30.51
54797,-0.34,-1.00,-0.04,-5.22,3.10,3.74,30.55
54807,-0.33,-1.00,-0.03,-3.86,4.23,4.56,30.55
54817,-0.32,-0.99,-0.03,-3.19,4.31,2.27,30.55
54827,-0.33,-0.98,-0.04,-1.54,2.49,-0.05,30.55
54837,-0.35,-0.96,-0.07,-1.10,0.40,-0.63,30.55
54847,-0.35,-0.96,-0.08,-2.44,-0.40,-0.29,30.55
54857,-0.34,-0.96,-0.09,-5.77,-0.70,-0.12,30.60
54867,-0.34,-0.98,-0.07,-8.37,-0.53,-0.35,30.60
54877,-0.34,-1.00,-0.04,-8.17,-1.07,0.15,30.51
54887,-0.32,-1.02,-0.03,-5.37,-0.61,1.79,30.55
54897,-0.32,-1.02,-0.02,-2.70,0.11,1.53,30.51
54907,-0.32,-1.01,-0.02,0.41,0.08,1.39,30.46
54917,-0.32,-1.00,-0.05,3.68,-0.06,1.79,30.55
54927,-0.30,-1.00,-0.07,4.00,1.86,2.08,30.46
54937,-0.30,-1.00,-0.06,3.54,1.66,2.41,30.55
54947,-0.29,-1.01,-0.06,3.36,2.03,3.11,30.55
54957,-0.27,-1.00,-0.07,3.22,3.39,2.21,30.60
54967,-0.26,-0.99,-0.05,3.36,4.53,0.55,30.51
54977,-0.26,-0.98,-0.04,3.40,4.11,-1.74,30.60
54987,-0.27,-0.99,-0.07,5.04,2.90,-2.31,30.51
54997,-0.28,-0.99,-0.07,5.27,3.92,-1.80,30.60
55007,-0.27,-1.00,-0.06,4.63,4.31,-0.75,30.55
55017,-0.25,-1.00,-0.05,5.07,5.18,0.11,30.46
55027,-0.24,-1.01,-0.04,5.60,6.69,-0.03,30.65
55037,-0.24,-1.01,-0.02,6.55,7.68,-1.21,30.46
55047,-0.26,-0.99,-0.02,8.27,5.74,-2.17,30.55
55057,-0.28,-0.99,-0.03,9.83,2.98,-0.40,30.46
55067,-0.30,-0.99,-0.06,10.76,-1.16,3.33,30.69
55077,-0.30,-1.00,-0.06,10.85,-3.28,7.92,30.51
55087,-0.30,-1.01,-0.05,9.92,-4.00,12.93,30.51
55097,-0.26,-1.02,-0.04,10.18,-3.66,15.73,30.51
55107,-0.23,-1.02,-0.03,10.79,-0.56,16.69,30.46
55117,-0.20,-1.02,-0.03,12.31,2.35,16.18,30.41
55127,-0.18,-1.04,-0.04,13.15,4.49,13.83,30.55
55137,-0.19,-1.04,-0.03,13.13,5.54,11.19,30.46
55147,-0.19,-1.05,-0.03,13.25,5.94,9.51,30.55
55157,-0.18,-1.05,-0.05,12.20,7.39,7.56,30.55
55167,-0.19,-1.05,-0.05,11.19,10.03,5.05,30.46
55177,-0.20,-1.04,-0.03,9.10,11.85,2.24,30.51
55187,-0.20,-1.05,-0.03,10.00,15.47,1.30,30.60
55197,-0.18,-1.04,-0.02,11.18,16.14,0.46,30.51
55207,-0.19,-1.03,-0.01,11.85,19.30,-1.74,30.51
55217,-0.19,-1.03,-0.01,13.69,21.66,-2.69,30.51
55227,-0.18,-1.04,-0.02,16.05,24.24,-2.46,30.55
55237,-0.15,-1.04,-0.03,17.80,28.27,-2.31,30.55
55247,-0.13,-1.06,-0.03,20.03,32.79,-3.98,30.55
55257,-0.09,-1.06,-0.02,22.81,37.22,-6.76,30.55
55267,-0.08,-1.06,-0.05,24.38,42.95,-12.05,30.55
55277,-0.12,-1.06,-0.01,25.08,46.05,-17.27,30.55
55287,-0.12,-1.07,-0.01,28.31,48.00,-20.18,30.51
55297,-0.14,-1.08,-0.03,30.73,51.36,-22.69,30.69
55307,-0.15,-1.08,-0.03,32.15,54.66,-24.29,30.60
55317,-0.15,-1.07,-0.04,32.55,57.69,-26.43,30.51
55327,-0.15,-1.06,-0.04,32.40,58.23,-28.20,30.55
55337,-0.17,-1.03,-0.05,31.24,58.55,-28.09,30.51
55347,-0.19,-1.02,-0.05,31.44,58.11,-25.69,30.46
55357,-0.19,-1.02,-0.06,31.19,58.75,-20.90,30.55
55367,-0.18,-1.04,-0.06,31.73,62.38,-14.81,30.46
55377,-0.13,-1.06,-0.05,32.82,68.95,-10.14,30.55
55387,-0.11,-1.06,-0.02,33.47,74.81,-9.71,30.55
55397,-0.10,-1.03,-0.00,33.92,73.01,-10.27,30.60
55407,-0.11,-1.01,-0.02,35.60,70.40,-8.76,30.41
55417,-0.14,-1.00,-0.05,36.73,69.25,-4.05,30.51
55427,-0.16,-1.01,-0.07,36.98,69.89,3.47,30.51
55437,-0.16,-1.01,-0.07,36.26,71.83,14.21,30.51
55447,-0.15,-1.01,-0.09,36.90,76.63,25.15,30.51
55457,-0.14,-1.01,-0.08,36.89,81.51,34.03,30.55
55467,-0.14,-1.02,-0.06,37.50,82.70,41.89,30.65
55477,-0.12,-1.03,-0.05,39.98,84.31,47.50,30.46
55487,-0.11,-1.04,-0.03,43.88,85.24,52.20,30.55
55497,-0.09,-1.06,-0.06,47.98,88.61,55.53,30.55
55507,-0.07,-1.07,-0.08,50.82,94.11,55.11,30.60
55517,-0.06,-1.08,-0.07,53.54,96.32,51.47,30.60
55527,-0.06,-1.06,-0.07,55.92,98.24,45.27,30.51
55537,-0.06,-1.05,-0.10,58.23,100.96,37.66,30.60
55547,-0.05,-1.02,-0.11,59.76,103.34,27.44,30.46
55557,-0.06,-1.00,-0.13,58.69,103.60,15.83,30.41
55567,-0.09,-0.98,-0.14,57.77,103.04,5.88,30.55
55577,-0.13,-0.96,-0.15,57.19,102.90,0.20,30.55
55587,-0.13,-0.95,-0.16,57.79,105.08,-3.77,30.46
55597,-0.17,-0.94,-0.18,57.21,110.47,-6.43,30.46
55607,-0.19,-0.94,-0.19,53.86,115.56,-9.73,30.46
55617,-0.22,-0.95,-0.16,51.15,116.14,-12.64,30.51
55627,-0.27,-0.96,-0.14,49.77,114.55,-13.82,30.51
55637,-0.27,-0.97,-0.13,51.57,115.13,-15.10,30.51
55647,-0.28,-0.95,-0.13,52.87,117.04,-16.73,30.51
55657,-0.29,-0.94,-0.12,54.87,118.44,-17.71,30.51
55667,-0.26,-0.94,-0.13,56.55,122.15,-19.36,30.60
55677,-0.27,-0.92,-0.15,56.38,122.29,-23.40,30.46
55687,-0.28,-0.93,-0.16,55.05,121.39,-25.13,30.46
55697,-0.28,-0.93,-0.18,53.97,122.52,-25.51,30.55
55707,-0.27,-0.94,-0.19,52.23,125.08,-28.55,30.55
55717,-0.26,-0.97,-0.19,49.15,128.11,-33.92,30.46
55727,-0.26,-1.00,-0.16,46.21,128.90,-42.69,30.55
55737,-0.27,-1.01,-0.14,44.89,126.85,-51.91,30.51
55747,-0.26,-1.00,-0.13,45.13,125.19,-59.27,30.51
55757,-0.26,-1.01,-0.15,47.65,126.05,-63.73,30.51
55767,-0.25,-0.99,-0.17,48.67,130.81,-68.50,30.46
55777,-0.29,-0.98,-0.16,48.58,134.56,-69.95,30.51
55787,-0.33,-0.97,-0.19,46.72,139.18,-68.69,30.37
55797,-0.38,-0.95,-0.17,43.22,138.99,-64.40,30.55
55807,-0.39,-0.95,-0.17,41.01,139.02,-58.38,30.55
55817,-0.38,-0.95,-0.21,38.73,142.90,-51.47,30.55
55827,-0.36,-0.94,-0.22,35.25,142.41,-44.38,30.46
55837,-0.27,-0.92,-0.25,31.05,142.90,-40.56,30.60
55847,-0.19,-0.91,-0.29,22.23,146.23,-45.79,30.60
55857,-0.19,-0.95,-0.27,8.95,141.88,-56.67,30.41
55867,-0.29,-0.99,-0.23,-2.12,130.85,-64.73,30.51
55877,-0.38,-1.03,-0.16,-6.40,119.21,-65.30,30.51
55887,-0.39,-1.07,-0.11,-4.31,111.62,-63.11,30.46
55897,-0.37,-1.10,-0.09,-0.31,107.80,-63.25,30.46
55907,-0.37,-1.11,-0.06,2.72,102.89,-62.66,30.46
55917,-0.37,-1.10,-0.04,4.27,100.34,-59.88,30.55
55927,-0.40,-1.07,-0.01,9.10,97.53,-49.48,30.55
55937,-0.40,-1.06,-0.03,14.78,98.75,-37.13,30.55
55947,-0.39,-1.06,-0.04,20.43,102.34,-24.35,30.41
55957,-0.37,-1.04,-0.06,25.18,107.05,-12.78,30.41
55967,-0.33,-1.02,-0.05,28.11,109.07,-5.08,30.51
55977,-0.30,-1.01,-0.06,29.40,104.02,-0.17,30.51
55987,-0.25,-0.99,-0.07,29.39,100.02,1.94,30.55
55997,-0.22,-1.00,-0.09,28.58,98.84,1.28,30.55
56007,-0.21,-1.00,-0.09,26.87,95.92,-1.39,30.46
56017,-0.21,-0.99,-0.09,24.56,95.54,-3.69,30.55
56027,-0.24,-0.99,-0.07,24.18,94.66,-3.37,30.37
56037,-0.26,-0.99,-0.07,24.00,93.34,0.12,30.55
56047,-0.27,-0.98,-0.06,23.97,93.24,6.37,30.51
56057,-0.27,-1.01,-0.06,25.63,96.56,12.02,30.51
56067,-0.25,-1.03,-0.06,25.25,102.46,12.82,30.41
56077,-0.24,-1.02,-0.02,24.67,101.45,8.64,30.41
56087,-0.25,-1.00,-0.01,25.19,97.07,1.92,30.51
56097,-0.26,-0.98,-0.00,25.80,90.34,-4.24,30.51
56107,-0.26,-0.95,-0.02,27.40,86.89,-7.73,30.46
56117,-0.27,-0.95,-0.05,27.91,87.94,-9.59,30.46
56127,-0.29,-0.94,-0.05,26.18,88.82,-10.41,30.46
56137,-0.30,-0.93,-0.06,23.10,88.69,-10.98,30.46
56147,-0.30,-0.92,-0.04,19.11,87.25,-12.41,30.46
56157,-0.31,-0.95,-0.04,15.19,83.79,-15.45,30.46
56167,-0.32,-0.98,-0.02,12.35,79.82,-20.23,30.51
56177,-0.34,-0.99,-0.00,9.82,74.41,-25.56,30.51
56187,-0.37,-0.99,0.02,8.08,67.76,-28.03,30.51
56197,-0.39,-0.99,0.04,8.24,62.26,-26.06,30.51
56207,-0.39,-0.99,0.04,10.90,61.95,-20.41,30.55
56217,-0.39,-1.00,0.02,12.38,65.44,-15.02,30.46
56227,-0.38,-1.02,0.03,12.06,68.70,-10.61,30.46
56237,-0.39,-1.03,0.06,12.53,68.05,-6.79,30.46
56247,-0.38,-1.05,0.07,14.35,65.88,-5.28,30.46
56257,-0.36,-1.07,0.09,16.35,63.27,-6.35,30.46
56267,-0.35,-1.06,0.08,18.64,59.97,-9.44,30.46
56277,-0.35,-1.05,0.08,18.89,55.33,-13.45,30.51
56287,-0.36,-1.05,0.08,17.74,51.62,-17.02,30.51
56297,-0.39,-1.06,0.09,16.29,48.46,-18.50,30.51
56307,-0.41,-1.07,0.09,16.20,46.90,-17.74,30.51
56317,-0.42,-1.07,0.09,15.97,47.01,-16.50,30.41
56327,-0.41,-1.06,0.11,15.76,49.10,-16.66,30.55
56337,-0.42,-1.04,0.14,16.21,46.15,-19.31,30.46
56347,-0.41,-1.01,0.12,15.30,41.07,-22.53,30.46
56357,-0.41,-0.97,0.11,13.63,37.44,-24.75,30.46
56367,-0.43,-0.94,0.12,12.08,27.53,-24.75,30.55
56377,-0.42,-0.93,0.10,11.60,23.57,-22.61,30.51
56387,-0.40,-0.93,0.07,12.46,19.88,-19.05,30.51
56397,-0.38,-0.93,0.04,9.08,18.81,-16.64,30.51
56407,-0.38,-0.92,0.05,3.71,18.02,-13.28,30.51
56417,-0.38,-0.92,0.09,-1.02,18.02,-10.00,30.51
56427,-0.39,-0.92,0.12,-3.94,14.81,-7.10,30.55
56437,-0.36,-0.91,0.13,-4.18,11.57,-3.45,30.55
56447,-0.35,-0.92,0.14,-1.45,8.92,1.57,30.46
56457,-0.31,-0.92,0.12,0.09,8.50,5.92,30.46
56467,-0.28,-0.93,0.12,0.56,7.91,9.76,30.46
56477,-0.24,-0.92,0.10,-1.10,8.23,11.30,30.46
56487,-0.22,-0.92,0.11,-4.70,9.15,10.47,30.46
56497,-0.20,-0.93,0.12,-6.17,5.44,8.75,30.41
56507,-0.19,-0.94,0.11,-6.46,3.04,6.84,30.51
56517,-0.18,-0.96,0.11,-6.81,1.42,5.56,30.41
56527,-0.16,-0.97,0.10,-7.48,1.47,4.89,30.41
56537,-0.14,-0.97,0.11,-9.18,1.97,2.93,30.51
56547,-0.13,-0.99,0.12,-10.17,0.46,0.46,30.46
56557,-0.12,-0.99,0.13,-10.85,0.09,-2.99,30.55
56567,-0.11,-0.99,0.14,-12.23,-0.69,-6.55,30.46
56577,-0.11,-1.00,0.13,-11.66,-2.56,-8.92,30.37
56587,-0.10,-1.02,0.13,-11.22,-1.51,-10.02,30.46
56597,-0.09,-1.02,0.12,-10.12,-0.75,-11.10,30.46
56607,-0.07,-1.05,0.10,-8.90,0.21,-12.64,30.51
56617,-0.06,-1.06,0.11,-7.24,1.82,-14.99,30.51
56627,-0.07,-1.06,0.11,-7.80,1.73,-18.37,30.51
56637,-0.08,-1.05,0.13,-8.09,-0.21,-20.38,30.51
56647,-0.08,-1.03,0.15,-8.05,-2.43,-22.17,30.46
56657,-0.09,-1.03,0.14,-7.68,-3.37,-23.27,30.46
56667,-0.08,-1.03,0.15,-7.53,-1.60,-24.64,30.46
56677,-0.08,-1.05,0.14,-8.26,-0.29,-26.40,30.55
56687,-0.08,-1.05,0.14,-9.02,0.14,-28.79,30.46
56697,-0.08,-1.05,0.14,-11.07,1.34,-31.44,30.46
56707,-0.10,-1.04,0.16,-10.85,-1.42,-33.25,30.46
56717,-0.11,-1.04,0.15,-9.69,-5.24,-33.15,30.51
56727,-0.13,-1.02,0.14,-9.48,-5.60,-31.27,30.51
56737,-0.15,-1.01,0.14,-9.27,-4.29,-26.15,30.51
56747,-0.16,-1.01,0.14,-7.76,-1.85,-18.14,30.41
56757,-0.14,-0.99,0.13,-8.15,2.75,-9.76,30.51
56767,-0.15,-1.01,0.12,-6.09,3.08,-1.54,30.60
56777,-0.13,-1.01,0.13,-6.06,4.73,5.30,30.46
56787,-0.10,-1.02,0.12,-5.85,5.36,9.92,30.55
56797,-0.07,-1.01,0.13,-5.44,4.64,12.15,30.46
56807,-0.05,-1.02,0.13,-5.80,4.78,12.02,30.55
56817,-0.02,-1.02,0.13,-5.68,4.27,9.94,30.46
56827,-0.02,-1.02,0.13,-4.82,3.30,7.54,30.46
56837,0.00,-1.02,0.12,-5.11,3.88,4.26,30.41
56847,-0.01,-1.01,0.12,-6.52,3.73,0.72,30.41
56857,-0.03,-1.03,0.12,-7.98,3.13,-1.53,30.51
56867,-0.04,-1.04,0.13,-7.60,1.98,-2.56,30.51
56877,-0.04,-1.03,0.13,-6.98,1.83,-3.71,30.41
56887,-0.06,-1.01,0.13,-8.56,2.95,-5.11,30.51
56897,-0.10,-1.02,0.15,-8.75,1.89,-4.87,30.46
56907,-0.13,-1.01,0.15,-6.66,-0.24,-1.33,30.55
56917,-0.13,-1.01,0.12,-5.10,0.26,4.15,30.46
56927,-0.12,-1.02,0.13,-4.09,2.52,9.47,30.46
56937,-0.10,-1.02,0.13,-3.91,4.70,13.16,30.46
56947,-0.09,-1.03,0.13,-3.51,5.42,15.11,30.55
56957,-0.07,-1.03,0.12,-3.88,6.24,14.38,30.51
56967,-0.05,-1.03,0.14,-5.34,6.38,11.97,30.51
56977,-0.04,-1.02,0.14,-5.16,3.16,8.40,30.51
56987,-0.04,-1.03,0.12,-5.16,1.25,4.11,30.51
56997,-0.04,-1.03,0.12,-5.36,0.90,0.72,30.46
57007,-0.04,-1.03,0.11,-5.73,-0.24,-1.82,30.51
57017,-0.05,-1.03,0.12,-6.52,0.18,-4.12,30.46
57027,-0.06,-1.03,0.12,-7.66,0.47,-5.19,30.55
57037,-0.06,-1.01,0.12,-7.80,0.50,-5.59,30.55
57047,-0.08,-1.01,0.12,-7.65,0.43,-5.40,30.46
57057,-0.08,-1.00,0.13,-7.71,0.79,-4.81,30.46
57067,-0.09,-1.01,0.13,-8.00,-0.03,-5.16,30.46
57077,-0.10,-1.02,0.13,-7.94,-1.19,-4.87,30.41
57087,-0.09,-1.02,0.13,-7.07,-2.20,-4.55,30.51
57097,-0.10,-1.02,0.12,-7.04,-2.72,-3.39,30.41
57107,-0.10,-1.01,0.12,-6.11,-2.93,-1.30,30.41
57117,-0.09,-1.00,0.12,-6.70,-1.07,1.18,30.51
57127,-0.10,-1.00,0.13,-7.21,0.20,4.08,30.46
57137,-0.10,-1.01,0.13,-6.49,0.32,7.02,30.46
57147,-0.09,-1.00,0.12,-6.50,1.18,8.47,30.46
57157,-0.07,-1.01,0.13,-6.43,1.48,7.80,30.55
57167,-0.07,-1.00,0.13,-6.41,0.27,5.57,30.55
57177,-0.06,-1.00,0.12,-6.23,-1.13,3.18,30.46
57187,-0.05,-1.00,0.11,-5.50,-2.53,1.40,30.46
57197,-0.05,-0.99,0.10,-5.44,-1.98,0.29,30.41
57207,-0.04,-0.99,0.08,-6.00,-1.13,0.05,30.51
57217,-0.06,-1.00,0.08,-7.89,0.06,0.61,30.51
57227,-0.07,-1.00,0.08,-10.27,1.21,1.69,30.51
57237,-0.07,-1.01,0.11,-11.62,-0.12,3.01,30.41
57247,-0.06,-1.03,0.10,-11.62,-0.52,3.18,30.51
57257,-0.06,-1.03,0.12,-11.95,-0.11,2.56,30.46
57267,-0.06,-1.04,0.13,-10.69,-1.28,3.10,30.46
57277,-0.06,-1.04,0.12,-8.78,-1.28,3.62,30.55
57287,-0.05,-1.04,0.11,-8.06,0.11,3.22,30.55
57297,-0.05,-1.04,0.12,-8.55,1.37,1.60,30.46
57307,-0.05,-1.06,0.10,-9.30,1.28,-0.11,30.46
57317,-0.07,-1.06,0.10,-9.22,-0.47,-0.84,30.41
57327,-0.06,-1.05,0.10,-9.11,-0.52,-0.82,30.51
57337,-0.05,-1.06,0.10,-8.58,-0.95,-1.57,30.51
57347,-0.05,-1.06,0.11,-7.71,-0.24,-4.02,30.51
57357,-0.06,-1.07,0.13,-6.85,-0.95,-6.41,30.51
57367,-0.07,-1.07,0.10,-5.21,-1.68,-6.89,30.41
57377,-0.08,-1.06,0.11,-4.27,-2.06,-5.45,30.46
57387,-0.08,-1.05,0.10,-4.26,-1.44,-3.97,30.46
57397,-0.08,-1.06,0.09,-4.93,-0.44,-2.92,30.46
57407,-0.08,-1.05,0.10,-6.38,-0.06,-3.18,30.46
57417,-0.07,-1.06,0.11,-6.89,-0.47,-3.36,30.55
57427,-0.08,-1.06,0.11,-6.56,-0.47,-2.73,30.46
57437,-0.09,-1.06,0.11,-5.42,-1.36,-1.73,30.60
57447,-0.08,-1.06,0.10,-4.89,-0.38,-2.41,30.41
57457,-0.08,-1.05,0.11,-5.04,0.15,-3.15,30.41
57467,-0.08,-1.04,0.11,-4.23,0.21,-3.51,30.41
57477,-0.08,-1.03,0.11,-3.45,-0.31,-2.72,30.55
57487,-0.09,-1.03,0.10,-2.44,-0.43,-1.42,30.51
57497,-0.08,-1.02,0.09,-2.38,0.06,0.35,30.55
57507,-0.09,-1.02,0.07,-2.58,0.70,1.86,30.55
57517,-0.08,-1.01,0.06,-3.63,1.74,2.50,30.55
57527,-0.07,-1.02,0.06,-4.43,2.15,2.46,30.46
57537,-0.07,-1.01,0.09,-5.50,1.60,1.36,30.46
57547,-0.07,-1.01,0.10,-5.60,0.14,0.11,30.55
57557,-0.07,-1.02,0.09,-4.66,-0.78,0.11,30.51
57567,-0.06,-1.01,0.08,-4.58,-0.37,0.06,30.41
57577,-0.04,-1.00,0.07,-6.08,1.40,-1.34,30.41
57587,-0.04,-1.00,0.07,-9.07,3.34,-3.73,30.60
57597,-0.04,-1.00,0.07,-10.70,4.58,-5.31,30.51
57607,-0.02,-1.00,0.06,-12.37,6.82,-6.66,30.46
57617,-0.03,-0.99,0.06,-14.78,7.15,-7.40,30.46
57627,-0.02,-0.99,0.06,-16.47,6.76,-8.79,30.46
57637,-0.03,-0.99,0.06,-18.78,7.66,-11.18,30.55
57647,-0.05,-1.01,0.08,-19.53,4.75,-13.48,30.55
57657,-0.05,-1.01,0.10,-17.77,2.70,-13.94,30.46
57667,-0.06,-1.01,0.10,-15.47,1.36,-13.89,30.51
57677,-0.05,-1.02,0.09,-12.70,1.62,-13.33,30.41
57687,-0.06,-1.01,0.08,-10.44,2.85,-12.43,30.41
57697,-0.08,-1.01,0.08,-9.15,1.85,-10.73,30.46
57707,-0.08,-1.01,0.08,-8.11,0.52,-7.73,30.51
57717,-0.09,-1.01,0.07,-7.79,-0.81,-3.65,30.55
57727,-0.09,-1.02,0.08,-6.66,-1.73,-0.78,30.46
57737,-0.07,-1.03,0.07,-6.79,0.08,0.89,30.46
57747,-0.06,-1.03,0.08,-6.79,-0.32,1.15,30.46
57757,-0.07,-1.04,0.09,-6.14,-1.27,1.31,30.55
57767,-0.06,-1.04,0.08,-5.65,-0.89,1.65,30.46
57777,-0.05,-1.04,0.09,-4.66,-0.43,1.79,30.41
