Timestamp,Acce_X,Acce_Y,Acce_Z,Gyro_X,Gyro_Y,Gyro_Z,Temp
21957,-0.04,0.06,0.80,-8.27,2.48,-3.47,29.52
21967,-0.04,0.07,0.80,-11.45,3.27,-4.83,29.57
21977,-0.04,0.07,0.81,-15.31,2.79,-5.99,29.47
21987,-0.04,0.07,0.83,-18.63,0.97,-6.62,29.52
21997,-0.05,0.06,0.87,-18.33,0.14,-7.40,29.61
22007,-0.06,0.07,0.89,-16.79,-0.58,-8.13,29.52
22017,-0.07,0.06,0.88,-15.19,0.55,-8.17,29.47
22027,-0.07,0.07,0.86,-14.30,1.44,-8.31,29.57
22037,-0.07,0.08,0.84,-15.50,2.17,-8.05,29.52
22047,-0.08,0.09,0.84,-17.23,0.81,-7.56,29.61
22057,-0.08,0.09,0.86,-20.40,-0.57,-7.26,29.47
22067,-0.09,0.09,0.88,-23.53,-2.23,-7.67,29.57
22077,-0.11,0.09,0.88,-25.48,-1.17,-6.60,29.52
22087,-0.11,0.09,0.91,-27.03,-0.37,-4.52,29.52
22097,-0.10,0.09,0.98,-29.41,1.77,-3.21,29.57
22107,-0.09,0.08,0.97,-25.94,-3.44,-1.24,29.47
22117,-0.06,0.07,1.00,-25.21,-4.96,-0.63,29.47
22127,-0.02,0.05,1.05,-21.34,-6.91,-2.27,29.52
22137,-0.03,0.06,1.07,-18.18,-8.06,-3.66,29.57
22147,-0.02,0.06,1.05,-16.85,-9.96,-5.43,29.57
22157,-0.04,0.06,1.06,-17.24,-13.66,-6.73,29.57
22167,-0.05,0.06,1.04,-15.82,-17.64,-6.76,29.52
22177,-0.05,0.06,1.02,-15.68,-16.44,-6.21,29.52
22187,-0.07,0.07,1.02,-17.94,-15.56,-4.63,29.47
22197,-0.05,0.08,1.00,-25.27,-23.88,-4.35,29.57
22207,-0.03,0.08,1.00,-31.21,-31.14,-5.23,29.52
22217,0.00,0.07,0.96,-30.16,-11.81,-5.41,29.61
22227,0.01,0.09,0.99,-42.53,-2.38,-5.56,29.47
22237,-0.00,0.08,1.04,-54.91,-9.04,-9.16,29.57
22247,-0.05,0.06,1.21,-55.28,-15.46,-9.46,29.61
22257,-0.09,0.05,1.33,-41.87,-18.37,-8.03,29.61
22267,-0.10,0.04,1.34,-32.16,-18.68,-5.73,29.52
22277,-0.09,0.05,1.32,-29.07,-23.87,-3.22,29.66
22287,-0.06,0.05,1.28,-34.31,-21.95,1.07,29.47
22297,-0.01,0.02,1.26,-46.79,-19.94,4.06,29.61
22307,0.02,-0.02,1.37,-56.09,-26.44,3.49,29.52
22317,0.07,-0.05,1.51,-55.18,-33.00,-1.53,29.57
22327,0.12,-0.10,1.61,-49.48,-31.45,-8.70,29.57
22337,0.12,-0.16,1.64,-33.47,-77.70,-19.18,29.52
22347,0.13,-0.16,1.59,-9.02,-51.96,-24.76,29.52
22357,0.09,-0.21,1.63,8.40,-50.44,-27.02,29.66
22367,0.10,-0.21,1.57,20.16,-40.47,-29.14,29.47
22377,0.11,-0.25,1.51,31.73,-25.15,-29.74,29.52
22387,0.15,-0.29,1.52,46.84,8.96,-26.86,29.61
22397,0.06,-0.31,1.59,76.91,23.67,-21.60,29.52
22407,0.08,-0.35,1.59,113.34,36.43,-20.79,29.57
22417,0.19,-0.34,1.41,131.42,34.49,-26.82,29.57
22427,0.12,-0.35,1.43,145.97,34.87,-29.18,29.52
22437,0.18,-0.35,1.35,151.76,40.62,-36.47,29.52
22447,0.13,-0.34,1.32,156.32,42.40,-39.89,29.57
22457,0.07,-0.33,1.38,167.58,47.24,-41.20,29.57
22467,0.04,-0.31,1.32,181.88,46.18,-39.47,29.57
22477,0.09,-0.29,1.17,194.79,40.53,-40.53,29.52
22487,0.11,-0.24,1.14,207.55,43.98,-45.12,29.61
22497,0.07,-0.18,1.07,213.45,35.66,-50.82,29.47
22507,0.06,-0.13,0.99,206.82,30.86,-52.22,29.47
22517,0.01,-0.07,1.01,199.73,21.85,-53.20,29.52
22527,-0.05,-0.06,1.01,199.18,22.08,-52.06,29.52
22537,-0.08,-0.03,1.01,199.62,28.76,-46.43,29.57
22547,-0.05,0.00,0.96,205.66,34.24,-40.66,29.47
22557,-0.03,0.02,0.92,210.89,42.40,-37.80,29.61
22567,-0.06,0.05,0.86,209.56,39.21,-36.86,29.52
22577,0.01,0.08,0.73,196.54,48.47,-35.44,29.57
22587,-0.13,0.12,0.85,193.47,42.98,-31.50,29.47
22597,-0.11,0.17,0.77,183.14,41.61,-30.98,29.57
22607,-0.11,0.20,0.70,167.43,39.40,-30.53,29.42
22617,-0.10,0.21,0.70,152.71,42.84,-29.29,29.52
22627,-0.10,0.19,0.78,146.94,44.21,-30.41,29.57
22637,-0.16,0.18,0.89,154.07,42.37,-28.94,29.47
22647,-0.14,0.14,1.01,176.39,29.65,-27.83,29.47
22657,-0.14,0.11,1.11,211.64,17.04,-26.82,29.42
22667,-0.07,0.10,0.96,237.76,15.08,-27.89,29.57
22677,-0.02,0.13,0.76,248.02,25.45,-32.14,29.47
22687,-0.01,0.18,0.59,241.63,35.43,-38.19,29.47
22697,-0.06,0.26,0.49,227.31,42.29,-43.19,29.52
22707,-0.13,0.33,0.43,212.02,38.41,-44.26,29.52
22717,-0.18,0.37,0.34,206.35,31.60,-44.16,29.38
22727,-0.22,0.40,0.26,199.98,30.12,-41.44,29.47
22737,-0.26,0.42,0.25,194.70,33.08,-37.24,29.42
22747,-0.28,0.42,0.26,191.86,38.53,-30.82,29.42
22757,-0.26,0.42,0.29,190.60,43.52,-24.09,29.47
22767,-0.24,0.39,0.40,198.58,36.25,-21.56,29.47
22777,-0.21,0.38,0.43,212.21,20.54,-22.76,29.57
22787,-0.20,0.42,0.36,219.05,8.92,-22.85,29.52
22797,-0.15,0.48,0.20,215.06,4.03,-23.50,29.42
22807,-0.10,0.54,0.03,208.44,16.37,-26.92,29.47
22817,-0.07,0.58,-0.11,200.86,40.17,-32.73,29.47
22827,-0.13,0.62,-0.21,186.16,59.26,-35.97,29.47
22837,-0.21,0.62,-0.15,177.50,62.39,-40.34,29.42
22847,-0.32,0.64,-0.15,169.35,66.78,-39.55,29.47
22857,-0.39,0.61,-0.08,161.82,69.94,-35.56,29.47
22867,-0.43,0.61,-0.02,159.43,73.23,-28.41,29.47
22877,-0.40,0.64,-0.01,160.32,72.92,-20.82,29.52
22887,-0.33,0.69,-0.04,161.31,78.49,-17.35,29.52
22897,-0.30,0.70,-0.14,159.82,82.97,-16.02,29.38
22907,-0.27,0.68,-0.24,155.78,81.98,-18.04,29.38
22917,-0.29,0.65,-0.29,147.68,78.63,-21.24,29.52
22927,-0.33,0.64,-0.28,136.21,76.06,-20.15,29.42
22937,-0.38,0.62,-0.23,127.66,77.27,-13.27,29.47
22947,-0.34,0.57,-0.24,122.47,91.02,-1.95,29.47
22957,-0.25,0.51,-0.23,119.28,115.17,7.88,29.52
22967,-0.17,0.43,-0.11,129.88,122.84,8.95,29.52
22977,-0.10,0.42,-0.15,136.47,122.71,5.79,29.38
22987,-0.09,0.49,-0.17,138.20,119.24,4.49,29.47
22997,-0.08,0.52,-0.22,140.20,114.62,3.29,29.47
23007,-0.09,0.54,-0.32,138.83,110.19,1.38,29.42
23017,-0.12,0.53,-0.47,132.30,89.71,-0.35,29.52
23027,-0.12,0.50,-0.47,128.47,89.53,-0.45,29.47
23037,-0.16,0.48,-0.57,117.50,77.66,3.31,29.47
23047,-0.13,0.46,-0.57,103.47,76.32,6.52,29.42
23057,-0.13,0.42,-0.47,100.95,63.90,6.84,29.42
23067,-0.12,0.40,-0.44,107.23,50.57,8.29,29.47
23077,-0.09,0.42,-0.46,111.65,50.60,11.73,29.38
23087,-0.01,0.40,-0.44,122.67,50.34,12.84,29.47
23097,0.07,0.37,-0.47,131.05,49.86,7.99,29.42
23107,0.11,0.33,-0.53,132.31,53.82,1.19,29.52
23117,0.07,0.34,-0.62,127.42,59.17,-3.32,29.47
23127,-0.01,0.40,-0.66,123.89,64.24,-0.90,29.47
23137,-0.03,0.40,-0.69,122.30,68.89,3.98,29.52
23147,-0.03,0.37,-0.71,120.63,69.18,6.58,29.42
23157,0.01,0.37,-0.72,116.29,64.69,8.02,29.57
23167,0.04,0.35,-0.78,112.95,58.49,5.84,29.57
23177,0.00,0.36,-0.78,111.60,48.85,6.05,29.47
23187,-0.05,0.39,-0.67,122.44,24.93,6.34,29.42
23197,-0.02,0.39,-0.79,134.76,5.98,4.21,29.42
23207,0.05,0.39,-0.97,134.93,-2.66,-3.56,29.47
23217,0.04,0.43,-1.17,128.76,-6.41,-12.14,29.47
23227,-0.04,0.49,-1.37,112.02,-1.84,-15.44,29.52
23237,-0.13,0.56,-1.43,94.09,-10.27,-17.86,29.52
23247,-0.19,0.60,-1.46,73.69,-20.07,-21.01,29.47
23257,-0.27,0.64,-1.47,56.27,-36.72,-25.84,29.38
23267,-0.30,0.71,-1.56,33.88,-43.85,-33.83,29.42
23277,-0.41,0.80,-1.65,20.83,-36.41,-44.66,29.33
23287,-0.45,0.84,-1.74,28.76,-25.78,-61.76,29.47
23297,-0.83,1.01,-2.00,28.60,-0.08,-52.75,29.47
23307,-0.99,1.12,-2.00,35.15,13.49,-28.71,29.47
23317,-1.01,1.16,-2.00,29.08,34.56,4.27,29.42
23327,-0.93,1.12,-2.00,-1.24,60.58,35.93,29.42
23337,-0.75,0.98,-1.95,-30.74,58.55,58.36,29.47
23347,-0.58,0.85,-1.76,-55.58,38.19,74.03,29.47
23357,-0.41,0.75,-1.50,-71.66,10.21,84.35,29.47
23367,-0.13,0.62,-1.35,-71.38,-2.44,82.61,29.42
23377,0.01,0.59,-1.29,-71.68,-0.10,72.78,29.47
23387,0.06,0.58,-1.26,-75.27,14.43,64.18,29.38
23397,0.07,0.60,-1.24,-73.63,40.10,58.92,29.38
23407,0.03,0.62,-1.17,-70.01,57.95,56.37,29.42
23417,0.01,0.64,-1.17,-75.17,51.95,52.95,29.42
23427,0.01,0.64,-1.19,-82.37,38.15,47.62,29.47
23437,0.01,0.70,-1.21,-91.72,18.92,42.46,29.38
23447,0.03,0.72,-1.25,-95.50,9.78,34.27,29.42
23457,-0.04,0.74,-1.22,-105.60,6.12,30.82,29.52
23467,-0.11,0.74,-1.15,-111.56,4.44,31.63,29.47
23477,-0.14,0.74,-1.08,-117.19,10.31,33.97,29.47
23487,-0.14,0.74,-1.03,-124.41,15.22,34.84,29.42
23497,-0.11,0.73,-1.02,-133.99,19.22,35.40,29.42
23507,-0.08,0.74,-1.04,-144.34,20.53,33.52,29.47
23517,-0.07,0.76,-1.03,-154.85,22.83,30.76,29.38
23527,-0.10,0.77,-0.94,-161.01,17.60,28.62,29.47
23537,-0.12,0.78,-0.87,-163.50,10.82,27.90,29.33
23547,-0.10,0.78,-0.84,-166.37,6.97,28.34,29.42
23557,-0.05,0.78,-0.82,-168.37,4.47,25.95,29.47
23567,-0.01,0.78,-0.77,-170.27,7.10,21.74,29.38
23577,-0.03,0.78,-0.72,-173.36,9.02,17.21,29.42
23587,0.01,0.78,-0.65,-175.12,2.89,12.15,29.42
23597,0.06,0.76,-0.61,-180.63,-3.11,6.56,29.47
23607,0.08,0.75,-0.54,-189.82,-11.41,3.52,29.57
23617,0.07,0.75,-0.49,-184.98,-18.54,2.47,29.52
23627,0.07,0.76,-0.43,-162.21,-24.82,4.64,29.42
23637,0.13,0.77,-0.49,-144.46,-19.01,4.23,29.38
23647,0.08,0.76,-0.38,-139.06,-12.11,5.07,29.47
23657,0.03,0.76,-0.26,-133.81,-13.76,5.24,29.57
23667,0.02,0.77,-0.28,-135.48,-12.01,6.74,29.33
23677,0.03,0.75,-0.28,-140.52,-11.75,8.81,29.42
23687,0.08,0.73,-0.29,-150.48,-8.77,8.56,29.47
23697,0.09,0.71,-0.23,-158.48,-10.73,6.94,29.38
23707,0.12,0.67,-0.21,-166.08,-16.99,5.45,29.47
23717,0.18,0.65,-0.16,-170.03,-23.50,3.50,29.42
23727,0.28,0.59,-0.15,-168.21,-24.96,-0.27,29.38
23737,0.39,0.58,-0.15,-170.31,-17.11,-5.23,29.38
23747,0.41,0.54,-0.15,-161.31,-16.57,-22.43,29.47
23757,0.36,0.58,-0.15,-163.55,-22.43,-34.20,29.52
23767,0.28,0.59,-0.12,-164.18,-36.27,-42.68,29.52
23777,0.23,0.58,-0.12,-163.95,-46.36,-48.02,29.57
23787,0.15,0.59,-0.09,-161.80,-44.17,-44.11,29.47
23797,0.07,0.59,-0.06,-157.43,-26.65,-32.86,29.52
23807,0.11,0.58,-0.03,-152.24,-0.38,-23.29,29.42
23817,0.17,0.52,0.04,-151.60,23.13,-21.76,29.38
23827,0.20,0.47,0.21,-157.67,27.06,-29.87,29.47
23837,0.19,0.46,0.37,-161.08,13.05,-42.16,29.42
23847,0.12,0.48,0.48,-157.77,-9.79,-54.35,29.42
23857,0.05,0.50,0.56,-148.76,-32.08,-62.49,29.52
23867,0.01,0.51,0.54,-138.54,-48.98,-66.09,29.38
23877,0.02,0.52,0.44,-132.14,-52.90,-67.27,29.47
23887,0.03,0.52,0.34,-128.12,-40.65,-66.63,29.57
23897,-0.00,0.53,0.36,-122.52,-16.39,-64.31,29.42
23907,-0.06,0.55,0.39,-118.50,6.37,-61.16,29.47
23917,-0.11,0.57,0.42,-121.40,21.00,-59.35,29.47
23927,-0.18,0.57,0.51,-126.68,11.06,-58.04,29.42
23937,-0.17,0.57,0.54,-129.07,-13.36,-59.12,29.42
23947,-0.15,0.56,0.51,-130.30,-32.15,-60.62,29.38
23957,-0.14,0.56,0.49,-127.27,-41.53,-61.69,29.47
23967,-0.15,0.56,0.46,-122.12,-32.91,-60.11,29.47
23977,-0.18,0.57,0.48,-118.90,-11.89,-56.82,29.42
23987,-0.23,0.58,0.50,-117.59,6.66,-53.99,29.42
23997,-0.28,0.56,0.55,-120.97,13.57,-50.56,29.47
24007,-0.30,0.55,0.58,-127.44,3.56,-48.69,29.47
24017,-0.29,0.54,0.61,-134.76,-18.37,-50.92,29.42
24027,-0.30,0.53,0.63,-140.05,-42.60,-52.62,29.42
24037,-0.32,0.53,0.62,-140.87,-52.18,-49.98,29.47
24047,-0.32,0.52,0.63,-133.66,-37.15,-41.98,29.47
24057,-0.30,0.49,0.64,-119.44,-1.47,-31.66,29.47
24067,-0.29,0.47,0.67,-110.34,38.56,-23.57,29.42
24077,-0.33,0.43,0.75,-108.31,60.38,-19.12,29.52
24087,-0.36,0.41,0.89,-107.89,56.50,-17.47,29.38
24097,-0.36,0.39,0.96,-107.45,26.73,-19.26,29.38
24107,-0.33,0.37,0.95,-105.56,-8.16,-23.26,29.42
24117,-0.28,0.37,0.92,-102.15,-31.11,-27.98,29.42
24127,-0.27,0.37,0.86,-97.30,-39.60,-30.01,29.38
24137,-0.29,0.36,0.86,-92.66,-31.48,-26.47,29.47
24147,-0.30,0.35,0.90,-86.29,-15.08,-19.63,29.52
24157,-0.28,0.33,0.93,-80.27,-0.25,-13.44,29.42
24167,-0.20,0.32,0.92,-75.57,5.38,-14.95,29.52
24177,-0.19,0.32,0.87,-74.83,-2.35,-21.50,29.47
24187,-0.25,0.35,0.85,-76.34,-18.18,-26.65,29.47
24197,-0.32,0.36,0.88,-75.89,-33.17,-28.16,29.52
24207,-0.38,0.35,0.89,-72.51,-39.97,-23.77,29.42
24217,-0.36,0.34,0.90,-68.85,-34.95,-15.95,29.47
24227,-0.32,0.33,0.91,-67.44,-20.64,-9.51,29.47
24237,-0.30,0.32,0.90,-64.24,-8.33,-6.59,29.38
24247,-0.28,0.30,0.88,-61.72,1.81,-5.11,29.42
24257,-0.27,0.28,0.91,-60.11,5.76,-6.26,29.47
24267,-0.30,0.26,0.95,-57.89,1.60,-5.95,29.47
24277,-0.32,0.25,0.99,-55.15,-5.05,-5.16,29.47
24287,-0.32,0.25,1.02,-50.05,-13.49,-3.52,29.52
24297,-0.30,0.24,0.99,-43.94,-14.55,-0.95,29.42
24307,-0.26,0.24,0.93,-38.48,-9.08,0.26,29.47
24317,-0.24,0.23,0.87,-34.29,-1.99,0.52,29.47
24327,-0.23,0.24,0.83,-33.93,1.71,-0.54,29.42
24337,-0.25,0.23,0.78,-36.23,1.79,-0.38,29.52
24347,-0.26,0.22,0.81,-38.73,-0.29,2.29,29.47
24357,-0.22,0.18,0.84,-42.08,-4.05,5.54,29.47
24367,-0.16,0.14,0.91,-44.92,-12.98,5.85,29.42
24377,-0.08,0.11,0.92,-51.42,-23.43,1.76,29.52
24387,-0.04,0.10,0.93,-55.64,-32.56,-4.47,29.42
24397,-0.03,0.11,0.94,-53.62,-36.23,-12.14,29.47
24407,-0.07,0.14,0.93,-46.92,-26.31,-16.11,29.57
24417,-0.16,0.18,0.93,-37.46,-12.15,-17.36,29.38
24427,-0.22,0.19,0.92,-30.59,-2.48,-15.73,29.52
24437,-0.25,0.19,0.91,-28.57,2.43,-12.43,29.47
24447,-0.27,0.18,0.89,-26.84,2.86,-9.31,29.47
24457,-0.24,0.14,0.86,-24.40,1.94,-7.73,29.52
24467,-0.23,0.12,0.84,-23.18,-0.63,-6.50,29.42
24477,-0.18,0.09,0.81,-21.94,-5.92,-7.01,29.38
24487,-0.14,0.08,0.76,-22.70,-9.88,-8.69,29.47
24497,-0.09,0.08,0.69,-25.24,-12.24,-14.24,29.47
24507,-0.05,0.08,0.65,-29.74,-9.12,-22.04,29.52
24517,-0.10,0.10,0.66,-33.98,-0.76,-29.63,29.42
24527,-0.21,0.14,0.71,-37.30,12.11,-32.72,29.47
24537,-0.34,0.15,0.81,-37.95,22.51,-30.97,29.47
24547,-0.42,0.16,0.87,-38.85,21.41,-25.17,29.42
24557,-0.44,0.15,0.88,-41.42,13.91,-17.72,29.52
24567,-0.41,0.13,0.87,-44.75,9.24,-10.78,29.47
24577,-0.35,0.10,0.87,-46.76,10.03,-5.65,29.47
24587,-0.30,0.08,0.91,-47.13,13.20,-1.71,29.47
24597,-0.26,0.05,0.96,-47.88,11.59,-1.47,29.42
24607,-0.23,0.03,1.01,-48.77,7.60,-1.56,29.38
24617,-0.22,0.02,1.03,-48.33,-0.30,-4.26,29.38
24627,-0.23,0.03,1.07,-49.28,-3.25,-6.52,29.42
24637,-0.26,0.02,1.09,-43.74,-9.71,-7.45,29.52
24647,-0.31,0.03,1.10,-38.65,-13.26,-3.81,29.52
24657,-0.31,0.03,1.11,-33.69,-12.97,1.25,29.38
24667,-0.27,0.02,1.08,-27.95,-10.88,5.86,29.47
24677,-0.21,0.02,1.04,-23.72,-6.95,7.02,29.42
24687,-0.18,0.02,1.01,-21.93,-3.71,5.92,29.42
24697,-0.18,0.01,1.03,-21.53,-5.51,4.56,29.38
24707,-0.20,0.01,1.06,-21.00,-15.60,3.83,29.47
24717,-0.19,0.02,1.04,-18.60,-27.79,2.56,29.52
24727,-0.18,0.01,0.99,-17.28,-37.93,1.73,29.52
24737,-0.15,0.02,0.95,-17.44,-38.79,0.73,29.47
24747,-0.13,0.02,0.90,-15.43,-29.70,1.29,29.47
24757,-0.14,0.03,0.92,-17.24,-21.79,1.50,29.47
24767,-0.14,0.00,0.93,-16.10,-14.81,2.34,29.42
24777,-0.13,0.00,0.93,-16.85,-9.50,2.32,29.52
24787,-0.10,-0.02,0.95,-17.95,-10.15,1.90,29.47
24797,-0.09,-0.02,0.96,-19.05,-17.64,-0.73,29.47
24807,-0.09,-0.02,0.93,-18.60,-21.19,-1.93,29.52
24817,-0.08,-0.01,0.92,-17.31,-18.08,-2.62,29.42
24827,-0.08,-0.02,0.92,-14.55,-13.29,-3.96,29.47
24837,-0.07,-0.02,0.90,-11.98,-6.56,-5.47,29.38
24847,-0.07,-0.02,0.89,-11.29,0.57,-5.65,29.52
24857,-0.10,-0.02,0.88,-10.08,11.02,-6.28,29.52
24867,-0.14,-0.01,0.91,-9.60,17.05,-7.39,29.38
24877,-0.17,-0.01,0.95,-8.79,12.07,-7.94,29.47
24887,-0.21,-0.01,0.94,-9.53,2.71,-7.76,29.57
24897,-0.23,-0.01,0.96,-9.40,-8.11,-5.82,29.42
24907,-0.22,-0.02,0.95,-8.40,-15.37,-5.42,29.52
24917,-0.22,-0.02,0.93,-6.73,-15.15,-2.24,29.47
24927,-0.22,-0.01,0.89,-5.96,-10.92,-1.66,29.47
24937,-0.19,-0.01,0.87,-6.38,-2.73,-1.83,29.47
24947,-0.22,-0.02,0.87,-9.08,-1.05,-1.79,29.42
24957,-0.26,-0.01,0.90,-11.30,-5.34,0.16,29.47
24967,-0.28,-0.02,0.92,-12.55,-15.53,2.30,29.47
24977,-0.28,-0.03,0.91,-13.16,-24.03,5.58,29.52
24987,-0.23,-0.04,0.89,-13.58,-28.25,8.44,29.42
24997,-0.19,-0.05,0.89,-14.74,-30.62,10.15,29.57
25007,-0.16,-0.08,0.86,-16.82,-30.22,11.14,29.47
25017,-0.09,-0.09,0.85,-19.21,-26.65,9.74,29.38
25027,-0.08,-0.10,0.87,-19.92,-20.16,8.15,29.52
25037,-0.10,-0.10,0.90,-19.81,-14.95,5.75,29.42
25047,-0.12,-0.09,0.94,-17.16,-12.79,4.47,29.38
25057,-0.15,-0.08,0.92,-15.12,-13.27,5.59,29.47
25067,-0.14,-0.09,0.91,-13.09,-13.22,6.11,29.42
25077,-0.12,-0.11,0.94,-10.09,-13.00,5.13,29.52
25087,-0.11,-0.12,0.93,-6.96,-12.74,5.66,29.47
25097,-0.08,-0.12,0.91,-5.34,-12.23,6.10,29.57
25107,-0.05,-0.12,0.90,-5.05,-9.23,4.51,29.47
25117,-0.05,-0.11,0.90,-5.43,-5.59,2.16,29.52
25127,-0.07,-0.09,0.88,-7.33,-4.65,0.91,29.47
25137,-0.10,-0.09,0.90,-8.98,-6.10,0.59,29.47
25147,-0.11,-0.09,0.92,-11.33,-6.81,1.64,29.47
25157,-0.11,-0.09,0.94,-12.06,-7.99,3.56,29.52
25167,-0.10,-0.11,0.97,-12.62,-7.79,4.00,29.52
25177,-0.08,-0.11,1.01,-10.68,-7.67,2.91,29.47
25187,-0.07,-0.10,1.02,-5.85,-7.43,0.76,29.38
25197,-0.10,-0.10,1.02,0.34,-8.66,-0.36,29.52
25207,-0.11,-0.08,1.01,7.12,-10.46,-1.27,29.42
25217,-0.13,-0.07,1.01,11.85,-10.56,-1.21,29.47
25227,-0.13,-0.06,0.97,12.37,-14.07,0.97,29.47
25237,-0.11,-0.07,0.95,12.98,-9.06,3.17,29.42
25247,-0.09,-0.07,0.94,13.68,0.11,4.08,29.52
25257,-0.08,-0.06,0.93,14.88,9.40,4.27,29.38
25267,-0.07,-0.06,0.95,15.40,14.62,4.29,29.57
25277,-0.08,-0.06,0.94,16.76,13.53,3.93,29.47
25287,-0.09,-0.06,0.94,17.44,12.70,4.24,29.52
25297,-0.11,-0.06,0.92,17.79,11.60,5.24,29.47
25307,-0.11,-0.06,0.92,17.95,12.42,6.66,29.38
25317,-0.10,-0.06,0.95,18.18,14.24,7.44,29.52
25327,-0.08,-0.08,0.95,18.42,17.75,7.61,29.42
25337,-0.08,-0.07,0.96,18.86,19.61,6.81,29.47
25347,-0.09,-0.06,0.96,20.48,17.79,4.13,29.47
25357,-0.12,-0.06,0.95,21.42,13.92,2.60,29.38
25367,-0.17,-0.04,0.94,20.95,3.96,3.40,29.52
25377,-0.19,-0.03,0.93,20.82,-7.24,5.76,29.52
25387,-0.16,-0.03,0.88,18.50,-16.51,7.31,29.47
25397,-0.11,-0.03,0.84,15.12,-20.79,8.30,29.47
25407,-0.09,-0.02,0.83,11.66,-20.34,8.02,29.42
25417,-0.07,-0.02,0.82,8.73,-19.18,7.02,29.42
25427,-0.06,-0.01,0.81,5.66,-16.31,5.45,29.47
25437,-0.07,-0.02,0.81,2.04,-15.14,5.56,29.38
25447,-0.07,-0.03,0.86,1.24,-11.34,6.01,29.57
25457,-0.09,-0.03,0.87,-0.89,-16.68,5.76,29.42
25467,-0.05,-0.03,0.86,-7.22,-15.24,6.44,29.42
25477,-0.05,-0.06,0.93,-4.45,-14.08,6.40,29.38
25487,-0.04,-0.05,0.92,-1.50,-9.47,5.59,29.47
25497,-0.04,-0.06,0.91,-2.02,-8.40,4.56,29.42
25507,-0.04,-0.06,0.93,-3.10,-14.31,1.85,29.52
25517,-0.06,-0.06,0.92,-3.66,-19.45,0.66,29.47
25527,-0.06,-0.05,0.92,-4.44,-25.86,0.23,29.38
25537,-0.03,-0.05,0.87,-3.88,-23.93,0.12,29.52
25547,-0.00,-0.05,0.86,-4.02,-12.95,-0.97,29.52
25557,-0.01,-0.05,0.87,-5.02,-2.40,-3.11,29.47
25567,-0.05,-0.04,0.86,-7.31,4.82,-5.05,29.47
25577,-0.10,-0.04,0.88,-10.78,2.38,-5.39,29.38
25587,-0.13,-0.04,0.88,-15.13,-8.21,-4.41,29.52
25597,-0.13,-0.04,0.89,-19.44,-18.59,-2.21,29.52
25607,-0.10,-0.06,0.89,-19.05,-24.27,-0.90,29.47
25617,-0.03,-0.08,0.89,-18.11,-16.24,-0.64,29.47
25627,-0.00,-0.09,0.91,-17.08,-3.77,-2.65,29.38
25637,-0.01,-0.10,0.95,-14.28,7.73,-5.37,29.33
25647,-0.05,-0.10,1.00,-11.92,9.51,-7.72,29.57
25657,-0.09,-0.09,1.01,-9.53,3.79,-8.81,29.57
25667,-0.11,-0.09,1.00,-6.60,-4.70,-9.20,29.52
25677,-0.12,-0.08,0.96,-6.86,-12.03,-8.21,29.42
25687,-0.13,-0.08,0.96,-9.40,-16.95,-7.11,29.47
25697,-0.13,-0.08,0.96,-12.72,-19.60,-5.53,29.38
25707,-0.12,-0.08,0.97,-14.42,-18.36,-3.76,29.47
25717,-0.08,-0.11,0.97,-13.75,-13.09,-2.40,29.52
25727,-0.06,-0.11,0.99,-10.96,-5.38,-2.69,29.52
25737,-0.04,-0.12,1.03,-4.10,4.22,-4.18,29.47
25747,-0.07,-0.12,1.03,1.87,8.51,-5.61,29.47
25757,-0.10,-0.11,1.00,5.21,5.89,-4.78,29.42
25767,-0.09,-0.11,1.00,7.16,-0.62,-4.79,29.42
25777,-0.09,-0.11,1.00,9.83,-8.67,-5.29,29.38
25787,-0.08,-0.11,0.98,10.67,-14.56,-5.03,29.47
25797,-0.05,-0.11,0.95,10.35,-14.11,-4.80,29.47
25807,-0.02,-0.11,0.94,9.68,-8.63,-5.56,29.42
25817,-0.02,-0.10,0.94,9.26,-2.02,-7.80,29.47
25827,-0.06,-0.08,0.95,9.89,0.56,-9.27,29.47
25837,-0.10,-0.07,0.93,11.00,-0.24,-8.37,29.52
25847,-0.13,-0.06,0.94,12.56,-3.68,-6.32,29.42
25857,-0.13,-0.07,0.92,13.56,-8.27,-3.82,29.38
25867,-0.11,-0.06,0.89,13.11,-9.62,-1.18,29.47
25877,-0.10,-0.06,0.89,12.24,-9.44,0.01,29.47
25887,-0.08,-0.06,0.87,8.78,-8.76,1.15,29.52
25897,-0.05,-0.06,0.87,6.19,-8.09,1.25,29.42
25907,-0.04,-0.07,0.88,4.50,-7.72,1.31,29.47
25917,-0.04,-0.08,0.88,3.44,-5.18,1.37,29.47
25927,-0.04,-0.08,0.90,3.25,-2.39,1.24,29.52
25937,-0.04,-0.08,0.90,2.98,0.45,1.43,29.42
25947,-0.04,-0.09,0.90,2.60,1.11,1.78,29.38
25957,-0.03,-0.09,0.91,1.79,0.29,1.46,29.47
25967,-0.02,-0.09,0.92,0.65,-0.41,1.24,29.47
25977,-0.01,-0.09,0.92,1.31,0.88,0.30,29.42
25987,-0.01,-0.08,0.93,3.08,1.99,-1.56,29.38
25997,-0.03,-0.08,0.92,4.02,1.95,-2.91,29.47
26007,-0.06,-0.07,0.93,5.13,0.56,-2.48,29.42
26017,-0.06,-0.07,0.92,5.08,-0.93,-1.70,29.42
26027,-0.06,-0.07,0.91,4.99,-2.07,-1.47,29.52
26037,-0.06,-0.06,0.90,3.88,0.65,-1.66,29.47
26047,-0.07,-0.06,0.91,3.47,2.44,-1.88,29.57
26057,-0.08,-0.06,0.89,3.53,4.28,-0.44,29.42
26067,-0.08,-0.05,0.90,3.27,5.68,0.33,29.52
26077,-0.06,-0.06,0.91,4.56,6.32,-0.24,29.47
26087,-0.05,-0.07,0.92,4.46,7.81,-0.70,29.47
26097,-0.04,-0.07,0.93,4.74,10.25,-0.54,29.52
26107,-0.04,-0.08,0.94,4.60,11.05,-0.37,29.52
26117,-0.05,-0.09,0.97,3.85,5.51,-1.02,29.47
26127,-0.05,-0.09,0.97,3.85,-2.26,-2.05,29.47
26137,-0.05,-0.09,0.95,5.09,-7.30,-1.93,29.38
26147,-0.03,-0.08,0.93,6.73,-5.87,-2.34,29.52
26157,-0.04,-0.08,0.93,7.11,-0.90,-1.69,29.42
26167,-0.05,-0.08,0.94,8.27,0.42,-1.37,29.47
26177,-0.05,-0.08,0.92,8.15,0.84,-0.66,29.47
26187,-0.03,-0.08,0.91,8.11,-0.85,-0.39,29.52
26197,-0.02,-0.09,0.90,8.10,-1.27,-0.98,29.42
26207,-0.01,-0.08,0.89,8.09,-2.66,-2.52,29.47
26217,-0.02,-0.07,0.90,8.47,-3.02,-4.37,29.47
26227,-0.05,-0.06,0.89,10.22,-2.79,-4.69,29.42
26237,-0.07,-0.05,0.86,11.23,2.42,-3.00,29.52
26247,-0.08,-0.05,0.86,11.91,4.10,-1.49,29.47
26257,-0.07,-0.05,0.86,10.85,4.22,-0.57,29.38
26267,-0.06,-0.05,0.86,7.91,1.92,0.24,29.47
26277,-0.06,-0.06,0.85,4.96,-2.08,0.46,29.42
26287,-0.05,-0.06,0.84,2.22,-3.75,0.53,29.52
26297,-0.03,-0.06,0.86,0.56,-4.05,0.02,29.47
26307,-0.04,-0.07,0.87,-0.21,-4.56,-0.11,29.47
26317,-0.04,-0.07,0.90,-1.03,-5.95,0.24,29.47
26327,-0.04,-0.07,0.90,-1.42,-6.60,-0.08,29.52
26337,-0.04,-0.08,0.92,-1.06,-8.10,-0.28,29.47
26347,-0.03,-0.08,0.91,0.17,-8.44,-0.98,29.47
26357,-0.02,-0.08,0.89,1.86,-4.06,-1.07,29.42
26367,-0.02,-0.08,0.92,3.94,2.15,-1.21,29.42
26377,-0.02,-0.08,0.92,4.50,4.44,-1.73,29.52
26387,-0.04,-0.08,0.94,3.20,1.65,-1.99,29.47
26397,-0.04,-0.08,0.95,2.78,-4.29,-2.20,29.47
26407,-0.03,-0.07,0.94,3.65,-9.53,-3.07,29.42
26417,-0.04,-0.07,0.92,5.32,-9.83,-3.89,29.42
26427,-0.05,-0.05,0.90,5.75,-9.26,-3.13,29.38
26437,-0.06,-0.04,0.90,5.60,-6.59,-2.08,29.47
26447,-0.05,-0.06,0.89,4.79,-5.45,-1.04,29.42
26457,-0.04,-0.06,0.89,4.53,-1.96,-0.70,29.42
26467,-0.03,-0.06,0.89,3.86,1.03,-0.85,29.47
26477,-0.03,-0.05,0.90,3.69,1.14,-1.17,29.47
26487,-0.03,-0.06,0.92,2.56,-0.76,-1.79,29.47
26497,-0.04,-0.04,0.90,2.77,-4.08,-3.00,29.42
26507,-0.06,-0.04,0.89,2.51,-6.48,-3.04,29.52
26517,-0.09,-0.02,0.87,2.54,-8.02,-1.63,29.47
26527,-0.09,-0.02,0.86,0.67,-9.79,0.84,29.47
26537,-0.07,-0.03,0.85,-2.20,-10.97,2.61,29.42
26547,-0.03,-0.04,0.86,-4.47,-8.31,3.50,29.42
26557,-0.00,-0.05,0.89,-4.58,-3.82,3.03,29.47
26567,0.01,-0.06,0.92,-4.21,1.05,1.98,29.38
26577,-0.00,-0.07,0.93,-4.27,2.33,1.34,29.42
26587,-0.00,-0.08,0.97,-2.39,1.07,0.53,29.52
26597,0.00,-0.10,0.98,-0.17,0.68,-0.62,29.47
26607,0.01,-0.09,0.96,1.02,-0.44,-2.24,29.47
26617,-0.00,-0.08,0.97,4.32,-2.86,-4.19,29.57
26627,-0.04,-0.07,0.95,6.89,-3.76,-4.44,29.52
26637,-0.05,-0.06,0.92,6.81,-3.02,-3.84,29.42
26647,-0.05,-0.05,0.91,6.61,-2.21,-3.24,29.47
26657,-0.06,-0.05,0.88,5.52,-0.95,-2.05,29.47
26667,-0.07,-0.04,0.88,3.92,0.29,-0.98,29.47
26677,-0.06,-0.04,0.87,1.95,0.96,0.02,29.42
26687,-0.05,-0.06,0.89,1.44,0.93,0.21,29.38
26697,-0.05,-0.05,0.88,0.71,1.40,0.60,29.38
26707,-0.05,-0.06,0.89,0.27,2.43,0.90,29.47
26717,-0.04,-0.07,0.91,1.83,3.14,1.34,29.42
26727,-0.04,-0.08,0.93,2.93,2.21,2.05,29.42
26737,-0.04,-0.07,0.92,3.27,1.18,2.17,29.38
26747,-0.03,-0.08,0.93,3.99,-1.18,2.46,29.38
26757,-0.03,-0.08,0.93,4.52,-2.75,2.92,29.42
26767,-0.01,-0.09,0.94,4.30,-6.24,2.64,29.42
26777,0.02,-0.10,0.93,4.38,-6.95,1.15,29.38
26787,0.02,-0.10,0.93,6.32,-4.93,-0.29,29.38
26797,0.01,-0.09,0.93,7.90,-0.40,-1.02,29.47
26807,-0.02,-0.08,0.92,8.11,0.49,-1.56,29.42
26817,-0.02,-0.07,0.90,6.76,0.27,-1.20,29.52
26827,-0.03,-0.07,0.91,5.41,-2.25,-1.54,29.47
26837,-0.03,-0.07,0.89,4.91,-3.04,-1.76,29.47
26847,-0.02,-0.07,0.89,4.92,-2.27,-2.18,29.38
26857,-0.02,-0.07,0.91,6.26,-0.08,-2.02,29.42
26867,-0.03,-0.06,0.90,7.11,2.36,-1.68,29.38
26877,-0.03,-0.06,0.90,6.85,3.30,-1.37,29.47
26887,-0.04,-0.06,0.90,6.50,1.11,-1.08,29.47
26897,-0.03,-0.06,0.89,5.94,-0.76,-0.96,29.33
26907,-0.02,-0.07,0.88,5.63,-1.56,-1.17,29.52
26917,-0.02,-0.06,0.89,5.16,-1.25,-1.39,29.38
26927,-0.02,-0.06,0.90,6.51,-1.02,-1.80,29.47
26937,-0.03,-0.06,0.91,6.51,-1.11,-1.73,29.52
26947,-0.03,-0.05,0.92,7.44,-2.91,-2.27,29.42
