Timestamp,Acce_X,Acce_Y,Acce_Z,Gyro_X,Gyro_Y,Gyro_Z,Temp
313107,0.06,0.03,0.94,-1.73,-1.66,-0.09,28.53
313117,0.05,0.04,0.95,-0.38,-2.36,-1.55,28.58
313127,0.04,0.05,0.94,0.21,-3.79,-2.76,28.48
313137,0.03,0.05,0.92,-0.05,-3.82,-3.02,28.53
313147,0.03,0.05,0.90,-1.14,-2.82,-1.52,28.53
313157,0.03,0.05,0.90,-2.92,-0.60,-0.95,28.53
313167,0.05,0.05,0.89,-6.01,0.63,-0.76,28.48
313177,0.04,0.06,0.89,-9.22,0.95,-0.23,28.48
313187,0.04,0.05,0.89,-11.21,-1.08,0.78,28.53
313197,0.05,0.05,0.89,-13.75,-3.14,1.69,28.53
313207,0.07,0.04,0.86,-16.40,-3.76,1.50,28.48
313217,0.07,0.03,0.86,-18.98,-5.21,1.02,28.58
313227,0.08,0.03,0.86,-22.34,-6.13,0.93,28.48
313237,0.08,0.03,0.85,-24.82,-7.26,0.63,28.53
313247,0.08,0.02,0.82,-28.43,-8.01,0.45,28.53
313257,0.09,0.02,0.81,-35.11,-10.11,-0.25,28.58
313267,0.09,0.02,0.83,-37.82,-15.05,-0.02,28.48
313277,0.08,0.01,0.86,-36.60,-20.33,0.74,28.53
313287,0.10,0.01,0.85,-35.95,-16.73,2.29,28.62
313297,0.13,0.01,0.87,-37.21,-5.79,3.40,28.53
313307,0.15,0.01,0.91,-45.47,5.27,1.97,28.48
313317,0.19,-0.01,0.98,-60.75,18.10,-2.08,28.48
313327,0.19,-0.02,1.18,-68.31,21.00,-10.60,28.53
313337,0.11,-0.03,1.40,-64.07,17.07,-17.61,28.53
313347,0.01,-0.04,1.60,-45.88,7.18,-19.42,28.53
313357,-0.03,-0.05,1.75,-21.66,4.87,-15.69,28.67
313367,-0.03,-0.06,1.91,4.49,3.40,-12.23,28.48
313377,0.02,-0.07,2.00,27.82,7.68,-11.13,28.62
313387,0.05,-0.07,2.00,48.47,12.15,-12.32,28.53
313397,0.09,-0.10,2.00,70.28,18.13,-17.60,28.58
313407,0.07,-0.12,2.00,88.23,23.57,-25.45,28.58
313417,0.01,-0.10,2.00,104.31,25.55,-29.92,28.62
313427,-0.06,-0.11,1.93,118.77,27.01,-30.18,28.53
313437,-0.08,-0.11,1.89,129.89,29.35,-26.83,28.48
313447,-0.06,-0.11,1.87,137.24,31.07,-23.39,28.58
313457,-0.01,-0.12,1.85,142.55,32.82,-22.04,28.58
313467,0.04,-0.14,1.85,150.44,32.87,-24.69,28.53
313477,0.05,-0.18,1.84,161.33,29.60,-29.60,28.53
313487,0.02,-0.19,1.79,172.95,26.12,-34.51,28.58
313497,-0.02,-0.19,1.75,184.11,23.37,-37.18,28.48
313507,-0.05,-0.17,1.67,195.00,20.47,-37.41,28.53
313517,-0.06,-0.17,1.57,203.24,22.51,-35.84,28.53
313527,-0.03,-0.17,1.46,206.27,30.49,-34.45,28.53
313537,-0.01,-0.17,1.42,207.58,38.96,-33.52,28.58
313547,-0.02,-0.18,1.39,211.19,39.48,-34.63,28.48
313557,-0.03,-0.19,1.36,213.52,34.61,-34.09,28.62
313567,-0.03,-0.21,1.32,218.86,30.56,-31.89,28.53
313577,0.01,-0.23,1.24,226.23,38.23,-29.20,28.48
313587,0.08,-0.23,1.16,233.74,51.79,-27.56,28.48
313597,0.12,-0.22,1.10,234.76,67.09,-26.33,28.53
313607,0.15,-0.21,1.07,235.06,77.02,-26.33,28.53
313617,0.17,-0.21,1.01,241.14,81.50,-27.01,28.53
313627,0.19,-0.21,0.92,246.52,84.69,-29.53,28.48
313637,0.20,-0.18,0.83,250.13,85.50,-33.37,28.58
313647,0.18,-0.15,0.75,250.13,85.50,-35.44,28.44
313657,0.16,-0.09,0.65,250.13,84.27,-38.37,28.53
313667,0.13,-0.04,0.55,245.79,86.41,-41.56,28.39
313677,0.07,0.03,0.50,232.51,81.37,-42.23,28.58
313687,0.00,0.08,0.48,223.87,70.48,-38.53,28.53
313697,-0.04,0.11,0.42,223.26,65.23,-33.04,28.53
313707,-0.06,0.13,0.41,224.74,60.11,-26.37,28.53
313717,-0.05,0.14,0.38,224.61,55.58,-21.92,28.53
313727,-0.03,0.13,0.36,223.57,51.11,-17.57,28.48
313737,-0.01,0.10,0.33,227.34,43.80,-14.61,28.53
313747,0.03,0.06,0.22,230.50,38.66,-15.10,28.44
313757,0.06,0.06,0.10,227.15,43.80,-18.01,28.48
313767,0.06,0.07,0.04,228.26,52.40,-24.35,28.48
313777,-0.00,0.11,-0.05,227.53,59.94,-31.32,28.48
313787,-0.08,0.16,-0.13,218.70,65.57,-34.18,28.53
313797,-0.20,0.21,-0.16,213.30,66.16,-30.42,28.44
313807,-0.27,0.27,-0.18,211.89,60.26,-22.31,28.48
313817,-0.26,0.29,-0.27,211.84,54.40,-13.44,28.39
313827,-0.23,0.32,-0.41,208.46,50.35,-9.46,28.53
313837,-0.22,0.34,-0.58,201.67,52.31,-7.12,28.53
313847,-0.21,0.35,-0.68,190.88,55.26,-4.58,28.44
313857,-0.20,0.36,-0.69,182.02,58.79,-1.70,28.48
313867,-0.19,0.36,-0.67,172.82,59.29,1.68,28.48
313877,-0.17,0.36,-0.61,165.76,58.35,4.32,28.53
313887,-0.14,0.34,-0.60,164.50,58.96,5.13,28.53
313897,-0.08,0.34,-0.63,163.65,65.70,4.31,28.53
313907,-0.04,0.34,-0.66,164.44,81.58,-0.69,28.48
313917,-0.07,0.35,-0.67,164.96,100.64,-3.17,28.48
313927,-0.12,0.39,-0.65,167.37,112.31,-1.72,28.44
313937,-0.18,0.42,-0.64,167.03,111.24,4.56,28.34
313947,-0.23,0.46,-0.62,162.08,99.36,15.26,28.58
313957,-0.22,0.47,-0.61,159.45,81.82,26.43,28.48
313967,-0.16,0.47,-0.63,158.21,67.04,33.60,28.53
313977,-0.04,0.42,-0.66,154.77,55.17,32.79,28.53
313987,0.06,0.40,-0.69,145.96,46.75,27.21,28.44
313997,0.10,0.41,-0.67,135.27,34.24,17.37,28.48
314007,0.08,0.41,-0.63,136.47,16.41,5.36,28.48
314017,0.04,0.43,-0.71,140.57,10.15,-3.73,28.44
314027,-0.04,0.43,-0.77,144.08,12.11,-9.60,28.53
314037,-0.09,0.43,-0.87,149.41,19.21,-12.52,28.53
314047,-0.11,0.47,-0.95,146.31,27.79,-14.44,28.48
314057,-0.12,0.48,-0.98,136.38,34.24,-16.56,28.48
314067,-0.14,0.49,-0.98,122.29,33.56,-17.71,28.44
314077,-0.16,0.54,-0.91,105.66,21.56,-17.73,28.44
314087,-0.17,0.53,-0.84,98.38,5.19,-20.00,28.44
314097,-0.19,0.51,-0.76,95.12,-11.82,-20.97,28.48
314107,-0.19,0.51,-0.73,96.59,-28.34,-23.70,28.48
314117,-0.22,0.48,-0.73,103.52,-32.50,-25.87,28.53
314127,-0.25,0.52,-0.75,108.35,-26.21,-26.17,28.44
314137,-0.28,0.56,-0.79,112.47,-13.60,-21.91,28.48
314147,-0.30,0.57,-0.81,110.92,-6.58,-17.83,28.58
314157,-0.29,0.54,-0.83,107.75,-14.25,-17.59,28.44
314167,-0.28,0.52,-0.87,101.27,-21.69,-17.69,28.53
314177,-0.28,0.52,-0.84,99.33,-27.80,-21.24,28.53
314187,-0.31,0.52,-0.89,103.75,-31.92,-26.06,28.39
314197,-0.36,0.52,-0.95,105.47,-41.92,-31.30,28.48
314207,-0.43,0.55,-1.05,106.01,-48.05,-34.76,28.44
314217,-0.52,0.55,-1.13,103.63,-48.60,-34.09,28.44
314227,-0.59,0.55,-1.20,101.60,-48.96,-30.47,28.44
314237,-0.63,0.55,-1.29,99.15,-49.17,-24.52,28.39
314247,-0.64,0.56,-1.37,93.15,-48.95,-16.32,28.48
314257,-0.65,0.57,-1.42,85.71,-46.68,-5.37,28.44
314267,-0.60,0.57,-1.41,76.05,-36.50,5.60,28.44
314277,-0.55,0.56,-1.34,65.16,-26.49,14.10,28.53
314287,-0.49,0.54,-1.29,53.82,-20.52,18.41,28.39
314297,-0.45,0.51,-1.27,48.98,-27.43,15.58,28.48
314307,-0.44,0.52,-1.41,40.82,-29.19,13.61,28.53
314317,-0.47,0.56,-1.56,23.01,-28.11,15.71,28.44
314327,-0.49,0.59,-1.69,0.63,-11.43,19.02,28.39
314337,-0.55,0.61,-1.72,-23.67,7.28,28.11,28.39
314347,-0.56,0.64,-1.73,-48.72,25.35,40.02,28.44
314357,-0.55,0.65,-1.68,-73.94,44.65,51.72,28.44
314367,-0.51,0.62,-1.56,-86.57,46.68,57.50,28.34
314377,-0.48,0.63,-1.49,-81.76,34.90,62.60,28.48
314387,-0.44,0.65,-1.43,-71.89,10.37,61.94,28.48
314397,-0.40,0.66,-1.42,-64.50,-17.32,57.15,28.44
314407,-0.40,0.67,-1.36,-61.03,-37.82,52.83,28.44
314417,-0.42,0.67,-1.31,-62.65,-44.78,52.34,28.53
314427,-0.42,0.66,-1.24,-66.21,-37.64,55.73,28.48
314437,-0.39,0.64,-1.19,-71.99,-21.11,60.00,28.48
314447,-0.33,0.64,-1.16,-80.92,0.17,61.54,28.44
314457,-0.28,0.63,-1.14,-93.59,21.78,60.53,28.53
314467,-0.25,0.64,-1.13,-107.21,40.73,56.47,28.53
314477,-0.26,0.66,-1.10,-117.22,52.52,52.66,28.48
314487,-0.28,0.67,-1.13,-126.76,61.11,51.95,28.58
314497,-0.27,0.66,-1.07,-132.59,64.36,50.73,28.44
314507,-0.24,0.64,-0.97,-131.79,58.61,47.53,28.53
314517,-0.20,0.66,-0.90,-132.17,49.30,40.92,28.48
314527,-0.20,0.69,-0.87,-130.40,32.86,33.05,28.48
314537,-0.21,0.72,-0.83,-121.17,10.01,26.10,28.48
314547,-0.24,0.74,-0.87,-112.39,-7.14,24.34,28.53
314557,-0.28,0.73,-0.87,-105.26,-16.44,25.72,28.44
314567,-0.28,0.73,-0.87,-100.67,-15.08,24.90,28.48
314577,-0.26,0.74,-0.86,-95.42,-6.65,21.34,28.39
314587,-0.28,0.79,-0.89,-93.28,2.70,14.04,28.39
314597,-0.36,0.86,-0.97,-89.45,3.18,8.40,28.53
314607,-0.48,0.90,-1.12,-76.95,-1.79,11.73,28.53
314617,-0.57,0.92,-1.31,-65.95,-10.06,27.12,28.48
314627,-0.59,0.91,-1.50,-80.06,-12.49,57.05,28.48
314637,-0.49,0.81,-1.51,-120.45,-9.92,90.41,28.48
314647,-0.25,0.61,-1.29,-176.53,-8.74,112.08,28.44
314657,0.07,0.39,-0.96,-232.79,-1.74,109.75,28.44
314667,0.33,0.28,-0.61,-250.14,-8.99,92.60,28.44
314677,0.46,0.24,-0.30,-250.14,-25.21,71.26,28.48
314687,0.52,0.27,-0.11,-250.14,-42.37,45.69,28.48
314697,0.48,0.34,-0.00,-250.14,-52.92,22.57,28.62
314707,0.34,0.42,-0.01,-214.60,-46.30,-0.92,28.53
314717,0.21,0.55,-0.09,-168.89,-29.26,-16.69,28.39
314727,0.10,0.69,-0.27,-136.28,4.05,-27.36,28.48
314737,-0.12,0.81,-0.38,-113.98,31.77,-30.94,28.48
314747,-0.37,0.88,-0.56,-93.17,48.77,-20.34,28.44
314757,-0.49,0.90,-0.73,-88.71,55.81,-0.44,28.44
314767,-0.48,0.87,-0.79,-100.47,47.43,17.40,28.48
314777,-0.39,0.80,-0.82,-122.44,28.04,27.94,28.58
314787,-0.26,0.72,-0.80,-146.39,9.03,29.11,28.39
314797,-0.13,0.63,-0.77,-169.63,2.18,24.41,28.53
314807,-0.09,0.59,-0.68,-187.84,2.89,13.57,28.44
314817,-0.17,0.52,-0.55,-193.56,15.50,8.24,28.48
314827,-0.24,0.45,-0.39,-189.81,28.05,11.69,28.39
314837,-0.24,0.38,-0.27,-184.06,32.90,18.25,28.62
314847,-0.24,0.26,-0.18,-184.06,39.14,31.60,28.53
314857,-0.16,0.20,-0.05,-202.23,29.87,39.42,28.44
314867,0.00,0.14,0.09,-227.47,-1.87,36.40,28.44
314877,0.19,0.23,0.19,-250.14,-36.07,22.31,28.39
314887,0.24,0.23,0.26,-250.14,-47.62,13.60,28.44
314897,0.16,0.21,0.22,-242.02,-29.24,9.31,28.34
314907,0.11,0.16,0.31,-214.30,2.63,8.51,28.48
314917,0.13,0.16,0.40,-208.04,29.63,8.54,28.48
314927,0.11,0.11,0.60,-215.03,31.60,4.40,28.48
314937,0.07,0.13,0.79,-224.53,19.91,1.76,28.44
314947,0.07,0.16,0.95,-225.03,-4.26,-0.50,28.44
314957,0.10,0.21,1.02,-210.79,-9.70,-2.86,28.39
314967,0.07,0.24,1.09,-190.40,-3.06,-5.15,28.48
314977,0.07,0.27,1.15,-164.05,10.21,-7.57,28.48
314987,0.02,0.31,1.19,-135.60,12.60,-8.91,28.44
314997,0.03,0.32,1.14,-118.74,11.78,-10.78,28.44
315007,0.03,0.34,1.11,-102.76,8.84,-14.69,28.39
315017,-0.01,0.39,1.06,-92.75,2.92,-24.07,28.39
315027,-0.10,0.44,1.01,-86.53,1.59,-30.97,28.34
315037,-0.21,0.56,0.92,-83.79,-7.54,-36.47,28.53
315047,-0.33,0.66,0.83,-80.41,-18.40,-38.01,28.44
315057,-0.48,0.66,0.71,-72.36,-29.76,-24.95,28.39
315067,-0.49,0.63,0.57,-64.27,-40.17,-2.39,28.48
315077,-0.33,0.60,0.43,-61.73,-39.58,16.15,28.44
315087,-0.14,0.58,0.34,-76.40,-19.15,23.02,28.44
315097,-0.02,0.59,0.43,-95.79,2.08,18.79,28.48
315107,-0.03,0.56,0.58,-107.98,7.58,10.31,28.48
315117,-0.08,0.48,0.69,-108.02,-2.92,4.40,28.48
315127,-0.12,0.43,0.70,-98.35,-23.46,2.72,28.44
315137,-0.13,0.39,0.68,-93.18,-28.42,7.70,28.53
315147,-0.10,0.38,0.76,-94.59,-23.09,12.69,28.48
315157,-0.06,0.40,0.84,-106.00,-10.09,15.67,28.48
315167,-0.04,0.45,0.94,-119.76,-4.56,14.95,28.53
315177,-0.08,0.44,1.00,-117.23,-10.23,11.87,28.34
315187,-0.11,0.36,0.94,-99.02,-14.15,13.31,28.53
315197,-0.08,0.29,0.86,-79.91,-13.47,16.94,28.48
315207,-0.04,0.25,0.85,-70.93,-10.23,24.15,28.48
315217,0.06,0.24,0.91,-77.72,-10.98,29.04,28.44
315227,0.15,0.24,0.96,-94.18,-20.04,27.88,28.44
315237,0.25,0.27,0.97,-106.26,-26.74,17.24,28.44
315247,0.26,0.25,0.96,-102.22,-22.05,4.98,28.53
315257,0.18,0.25,0.94,-89.49,-11.79,-1.44,28.39
315267,0.16,0.24,1.00,-75.99,0.56,-7.98,28.44
315277,0.11,0.17,1.04,-68.80,9.40,-15.39,28.53
315287,0.04,0.20,1.06,-68.96,9.85,-19.80,28.48
315297,-0.05,0.24,1.03,-70.95,8.34,-18.18,28.48
315307,-0.09,0.28,1.02,-75.03,11.37,-16.90,28.48
315317,-0.14,0.31,1.05,-74.23,15.83,-16.63,28.53
315327,-0.22,0.31,1.05,-67.28,16.06,-11.60,28.53
315337,-0.24,0.32,1.02,-60.18,11.04,-3.94,28.39
315347,-0.23,0.28,1.01,-54.81,11.19,5.23,28.48
315357,-0.19,0.19,1.01,-51.56,9.22,13.05,28.48
315367,-0.12,0.14,1.00,-53.21,-0.27,18.15,28.44
315377,-0.02,0.12,0.97,-55.92,-16.02,19.08,28.53
315387,0.09,0.11,0.94,-57.85,-26.12,13.52,28.48
315397,0.13,0.13,0.93,-58.56,-24.15,4.06,28.48
315407,0.08,0.14,0.93,-54.77,-12.90,-0.95,28.48
315417,0.04,0.14,0.98,-52.82,-0.91,-0.86,28.53
315427,0.00,0.14,1.02,-56.85,6.19,0.58,28.53
315437,-0.01,0.10,1.09,-60.37,7.32,2.56,28.53
315447,-0.00,0.10,1.13,-58.66,2.05,2.09,28.48
315457,-0.01,0.08,1.11,-51.48,-3.08,2.65,28.53
315467,0.02,0.07,1.07,-43.69,-3.64,1.33,28.53
315477,0.05,0.10,1.05,-39.54,-2.69,-4.52,28.44
315487,-0.00,0.13,1.01,-37.21,-1.75,-8.05,28.58
315497,-0.06,0.14,0.95,-38.02,2.21,-7.08,28.39
315507,-0.09,0.14,0.93,-40.28,5.17,-3.72,28.53
315517,-0.11,0.14,0.95,-46.35,7.21,2.11,28.34
315527,-0.10,0.11,0.99,-50.63,0.74,7.21,28.39
315537,-0.09,0.08,0.98,-51.21,-10.55,11.05,28.48
315547,-0.05,0.07,0.94,-49.19,-18.31,13.28,28.39
315557,-0.02,0.05,0.90,-45.93,-20.15,14.90,28.44
315567,0.03,0.04,0.87,-45.02,-14.40,14.05,28.53
315577,0.06,0.02,0.91,-47.32,-4.84,10.88,28.48
315587,0.05,0.02,0.99,-49.56,0.79,7.33,28.39
315597,0.02,0.01,1.05,-50.38,0.50,5.88,28.53
315607,0.02,-0.00,1.09,-48.76,-7.18,3.87,28.44
315617,0.00,-0.01,1.09,-44.82,-17.58,0.92,28.53
315627,-0.01,-0.01,1.07,-36.70,-25.21,0.82,28.53
315637,-0.00,-0.03,1.00,-28.85,-26.34,2.87,28.39
315647,0.05,-0.05,0.92,-25.00,-18.40,3.41,28.44
315657,0.10,-0.05,0.87,-26.70,-3.66,3.63,28.44
315667,0.12,-0.04,0.88,-33.09,11.10,3.11,28.48
315677,0.12,-0.03,0.94,-39.94,15.81,-0.90,28.58
315687,0.10,-0.04,0.98,-39.15,10.83,-6.37,28.58
315697,0.06,-0.05,1.00,-31.92,-0.24,-11.06,28.44
315707,0.04,-0.06,0.98,-22.84,-5.94,-13.28,28.53
315717,0.05,-0.06,0.97,-14.56,-2.03,-13.92,28.48
315727,0.04,-0.05,0.94,-10.76,6.28,-14.33,28.58
315737,0.00,-0.04,0.90,-10.21,16.06,-14.08,28.44
315747,-0.03,-0.02,0.84,-15.62,22.69,-14.31,28.44
315757,-0.09,-0.01,0.80,-19.27,24.90,-13.66,28.58
315767,-0.15,-0.00,0.81,-21.85,23.57,-7.82,28.48
315777,-0.16,-0.00,0.83,-24.92,15.85,0.37,28.48
315787,-0.11,-0.03,0.89,-30.75,11.57,7.67,28.53
315797,-0.05,-0.07,1.00,-34.73,3.04,9.93,28.44
315807,-0.02,-0.09,1.06,-37.22,-11.05,10.39,28.44
315817,0.01,-0.12,1.07,-35.72,-23.32,8.38,28.48
315827,0.05,-0.14,1.09,-25.48,-28.88,5.41,28.44
315837,0.09,-0.16,1.07,-12.72,-25.66,1.89,28.53
315847,0.08,-0.15,1.02,-4.68,-15.88,-0.52,28.34
315857,0.07,-0.13,1.00,-1.83,-4.21,-0.78,28.48
315867,0.07,-0.13,1.02,-2.94,6.51,-1.63,28.48
315877,0.06,-0.13,1.07,-0.91,13.82,-2.70,28.53
315887,0.03,-0.12,1.08,2.86,14.18,-3.27,28.44
315897,0.01,-0.13,1.08,5.92,7.80,-3.04,28.44
315907,0.04,-0.13,1.08,7.95,-1.42,-3.24,28.48
315917,0.07,-0.13,1.11,11.22,-11.07,-6.24,28.48
315927,0.11,-0.14,1.10,16.58,-15.88,-9.17,28.44
315937,0.16,-0.15,1.08,20.35,-13.90,-14.69,28.44
315947,0.16,-0.14,1.07,24.80,-7.38,-20.27,28.48
315957,0.14,-0.13,1.09,29.40,-0.03,-25.63,28.48
315967,0.10,-0.12,1.04,35.24,3.88,-29.77,28.44
315977,0.05,-0.10,0.98,39.94,8.85,-31.38,28.53
315987,0.02,-0.08,0.97,47.10,9.73,-32.22,28.53
315997,-0.03,-0.04,0.94,51.97,4.88,-30.76,28.44
316007,-0.05,-0.01,0.89,51.26,0.73,-26.23,28.48
316017,-0.05,-0.00,0.83,47.83,-3.14,-22.68,28.44
316027,-0.01,0.00,0.81,39.30,-3.79,-21.63,28.44
316037,-0.02,0.01,0.83,30.47,-8.11,-22.64,28.39
316047,-0.04,0.01,0.82,21.60,-10.68,-20.95,28.39
316057,-0.05,0.02,0.83,17.57,-12.24,-18.38,28.48
316067,-0.06,0.02,0.85,15.34,-12.60,-14.52,28.53
316077,-0.05,0.01,0.82,11.10,-11.56,-11.69,28.53
316087,-0.04,0.02,0.82,5.39,-10.54,-9.45,28.39
316097,-0.04,0.02,0.81,1.45,-12.05,-6.96,28.39
316107,-0.02,0.03,0.79,-3.16,-9.67,-4.46,28.44
316117,-0.00,0.02,0.75,-7.82,-5.08,-2.73,28.44
316127,0.00,0.01,0.78,-14.62,-0.44,-3.11,28.58
316137,-0.01,-0.01,0.87,-16.79,-8.24,-5.89,28.48
316147,-0.02,-0.00,0.87,-18.32,-15.52,-5.67,28.44
316157,-0.03,-0.02,0.89,-18.75,-16.30,-4.02,28.53
316167,-0.02,-0.01,0.92,-16.13,-11.69,-2.76,28.53
316177,-0.02,-0.01,0.95,-15.21,-5.56,-1.54,28.44
316187,-0.01,-0.01,0.97,-14.92,-0.85,-0.13,28.48
316197,-0.01,-0.01,0.98,-14.79,2.26,1.05,28.53
316207,0.03,-0.01,0.99,-16.05,1.48,1.18,28.44
316217,0.03,-0.03,0.97,-17.58,-0.46,1.05,28.44
316227,-0.00,-0.03,0.98,-17.11,-18.15,0.44,28.48
316237,0.02,-0.03,0.99,-16.24,-12.17,1.09,28.48
316247,0.04,-0.04,0.99,-13.40,-10.62,0.11,28.44
316257,0.04,-0.03,0.97,-12.24,-4.09,0.03,28.53
316267,0.06,-0.04,0.96,-12.27,3.55,-0.82,28.48
316277,0.07,-0.05,0.97,-12.92,11.24,-2.32,28.48
316287,0.06,-0.04,1.01,-12.12,11.85,-3.98,28.44
316297,0.03,-0.05,1.03,-10.98,5.46,-5.08,28.53
316307,0.03,-0.05,1.02,-7.98,0.25,-6.63,28.44
316317,-0.00,-0.05,1.00,-3.98,-2.63,-6.46,28.48
316327,-0.00,-0.05,0.98,-2.31,-3.64,-5.98,28.48
316337,-0.00,-0.04,0.98,-2.64,-3.04,-4.93,28.44
316347,-0.01,-0.04,0.97,-2.38,-2.98,-4.02,28.53
316357,0.00,-0.04,0.96,-2.34,-0.21,-2.92,28.53
316367,0.00,-0.05,0.96,-2.27,0.51,-2.56,28.39
316377,0.02,-0.06,0.96,-1.97,-0.80,-2.89,28.58
316387,0.01,-0.06,0.95,-1.24,-4.67,-3.68,28.53
316397,0.02,-0.06,0.95,-0.46,-2.55,-4.23,28.44
316407,0.01,-0.06,0.94,0.92,-3.59,-5.43,28.39
316417,-0.01,-0.04,0.92,0.48,-3.59,-4.92,28.48
316427,-0.02,-0.05,0.92,-0.94,-2.27,-3.37,28.39
316437,-0.02,-0.07,0.93,-1.06,-2.85,-2.31,28.44
316447,0.00,-0.07,0.95,-0.30,-5.45,-3.01,28.53
316457,0.02,-0.07,0.91,1.88,-5.42,-4.34,28.58
316467,0.03,-0.06,0.84,1.66,2.58,-4.72,28.48
316477,0.01,-0.06,0.87,0.87,10.13,-4.31,28.53
316487,-0.01,-0.05,0.90,-3.02,9.39,-3.47,28.53
316497,-0.02,-0.07,0.95,-4.42,3.93,-1.98,28.53
316507,-0.01,-0.08,0.95,-1.92,-0.34,-0.27,28.48
316517,-0.01,-0.08,0.96,1.49,0.65,0.53,28.48
316527,0.00,-0.08,0.95,4.92,1.88,1.43,28.44
316537,0.00,-0.07,0.93,4.72,1.86,2.61,28.34
316547,0.01,-0.07,0.90,2.05,0.87,3.31,28.44
316557,0.03,-0.07,0.93,2.24,-0.13,2.89,28.39
316567,0.03,-0.09,0.94,6.70,-0.15,1.87,28.48
316577,0.02,-0.08,0.95,10.29,-2.37,1.34,28.53
316587,0.00,-0.08,0.93,11.21,-6.15,1.76,28.44
316597,0.00,-0.07,0.91,10.73,-8.24,2.66,28.48
316607,0.02,-0.06,0.89,9.43,-7.89,3.88,28.48
316617,0.03,-0.05,0.86,6.80,-5.86,3.71,28.44
316627,0.07,-0.07,0.83,1.56,-0.14,1.95,28.44
316637,0.09,-0.09,0.87,-0.10,4.67,-1.63,28.44
316647,0.07,-0.08,0.90,-1.24,5.04,-4.44,28.48
316657,0.05,-0.07,0.91,-1.31,2.05,-5.44,28.48
316667,0.03,-0.07,0.92,0.11,0.62,-4.95,28.53
316677,0.03,-0.07,0.91,2.19,2.69,-4.43,28.53
316687,0.02,-0.07,0.94,3.66,3.85,-3.68,28.58
316697,0.01,-0.07,0.95,5.56,2.10,-2.90,28.48
316707,0.02,-0.07,0.93,6.92,1.18,-1.84,28.58
316717,0.01,-0.06,0.91,7.89,1.14,-1.28,28.44
316727,0.02,-0.06,0.89,6.74,1.57,-0.15,28.53
316737,0.01,-0.05,0.91,4.95,0.04,0.21,28.44
316747,0.01,-0.05,0.91,3.71,-3.53,0.41,28.48
316757,0.03,-0.06,0.90,2.88,-5.47,0.76,28.53
316767,0.04,-0.07,0.89,3.05,-5.40,0.56,28.44
316777,0.03,-0.06,0.87,2.35,-3.84,0.18,28.48
316787,0.04,-0.06,0.91,0.88,-3.37,-0.82,28.48
316797,0.03,-0.07,0.93,1.29,-5.25,-0.63,28.48
316807,0.04,-0.06,0.92,3.49,-5.74,-0.95,28.44
316817,0.04,-0.07,0.92,6.21,-3.56,-1.00,28.53
316827,0.03,-0.07,0.90,6.86,-0.95,-1.43,28.48
316837,0.04,-0.06,0.89,5.84,0.12,-1.71,28.58
316847,0.03,-0.06,0.89,3.41,-1.93,-1.72,28.44
316857,0.02,-0.06,0.89,1.98,-5.61,-1.30,28.62
316867,0.04,-0.06,0.88,2.43,-6.60,-1.48,28.44
316877,0.04,-0.07,0.88,2.11,-3.49,-2.35,28.48
316887,0.03,-0.07,0.91,1.84,-1.01,-2.57,28.58
316897,0.01,-0.06,0.90,2.15,-0.54,-1.89,28.53
316907,0.02,-0.06,0.90,1.77,0.94,-0.82,28.44
316917,0.02,-0.06,0.89,1.24,0.68,-0.12,28.44
316927,0.02,-0.07,0.90,0.60,-1.64,0.03,28.48
316937,0.02,-0.08,0.97,6.08,-7.70,-1.24,28.53
316947,0.04,-0.08,0.96,12.92,-10.76,-1.09,28.44
316957,0.04,-0.08,0.94,18.33,-8.53,-1.19,28.44
316967,0.04,-0.06,0.92,19.29,-6.34,-0.91,28.48
316977,0.04,-0.06,0.90,15.32,-5.53,-0.50,28.48
316987,0.05,-0.05,0.88,11.86,-6.16,-0.93,28.44
316997,0.05,-0.04,0.84,9.37,-4.49,-1.75,28.44
317007,0.05,-0.04,0.85,7.70,-2.88,-2.07,28.48
317017,0.04,-0.04,0.83,5.09,-0.93,-1.40,28.48
317027,0.03,-0.04,0.83,0.90,-0.13,-0.14,28.58
317037,0.05,-0.04,0.84,-4.69,-0.47,0.32,28.44
317047,0.04,-0.04,0.87,-9.07,-0.16,0.33,28.53
317057,0.04,-0.06,0.89,-9.44,-0.38,0.27,28.48
317067,0.05,-0.07,0.91,-7.11,0.08,-0.05,28.48
317077,0.06,-0.07,0.92,-5.27,2.83,-0.37,28.48
317087,0.06,-0.07,0.93,-3.28,3.77,-0.98,28.44
317097,0.06,-0.06,0.94,-2.49,3.28,-0.95,28.53
317107,0.05,-0.06,0.92,-1.98,2.43,-0.81,28.44
317117,0.05,-0.06,0.92,-1.44,2.18,-0.69,28.58
317127,0.05,-0.06,0.90,-0.89,1.79,-1.12,28.44
317137,0.04,-0.06,0.89,-0.99,2.13,-1.02,28.44
317147,0.04,-0.06,0.88,-2.50,1.77,-0.63,28.44
317157,0.04,-0.06,0.89,-4.35,0.77,-0.54,28.48
317167,0.04,-0.06,0.91,-5.54,0.18,-0.58,28.48
317177,0.04,-0.07,0.93,-5.04,-0.02,-0.87,28.53
317187,0.04,-0.08,0.94,-2.11,-1.47,-1.53,28.53
317197,0.05,-0.07,0.93,0.10,-1.19,-1.50,28.39
317207,0.05,-0.07,0.92,2.28,0.37,-1.62,28.48
317217,0.05,-0.07,0.92,3.40,1.80,-1.79,28.39
317227,0.05,-0.07,0.91,2.90,2.33,-2.15,28.53
317237,0.04,-0.07,0.92,1.64,1.73,-2.17,28.44
317247,0.03,-0.06,0.92,2.01,-0.92,-1.76,28.48
317257,0.04,-0.07,0.92,2.44,-2.32,-1.54,28.48
317267,0.04,-0.07,0.92,2.57,-3.65,-1.92,28.44
317277,0.03,-0.07,0.91,2.19,-5.41,-1.53,28.53
317287,0.03,-0.07,0.91,2.35,-4.29,-1.19,28.44
317297,0.03,-0.07,0.90,3.11,-1.02,-1.68,28.48
317307,0.02,-0.07,0.91,4.14,0.66,-1.28,28.39
317317,0.03,-0.07,0.92,3.23,0.05,-0.47,28.53
317327,0.03,-0.07,0.92,2.55,-1.92,0.52,28.44
317337,0.04,-0.07,0.91,2.61,-3.59,0.54,28.39
317347,0.04,-0.07,0.91,2.46,-2.47,0.50,28.48
317357,0.05,-0.07,0.90,2.11,-0.76,-0.15,28.44
317367,0.06,-0.07,0.91,2.93,0.57,-1.02,28.44
317377,0.04,-0.07,0.92,1.73,-0.50,-1.41,28.53
317387,0.03,-0.07,0.93,1.37,-4.62,-1.31,28.48
317397,0.03,-0.07,0.90,1.87,-6.79,-0.47,28.48
317407,0.04,-0.08,0.90,2.89,-5.09,0.23,28.44
317417,0.06,-0.08,0.90,3.66,-2.60,-0.95,28.44
317427,0.07,-0.07,0.89,4.21,1.03,-1.80,28.58
317437,0.05,-0.06,0.90,3.68,4.89,-1.79,28.48
317447,0.04,-0.06,0.91,3.25,5.43,-1.95,28.44
317457,0.03,-0.06,0.90,1.26,3.84,-1.63,28.44
317467,0.02,-0.07,0.91,1.52,1.33,-0.56,28.53
317477,0.02,-0.07,0.91,2.05,-0.63,0.11,28.44
317487,0.03,-0.07,0.89,2.02,-2.36,0.37,28.48
317497,0.04,-0.08,0.89,1.82,-2.27,0.32,28.44
317507,0.06,-0.07,0.88,1.44,-0.05,-0.63,28.53
317517,0.04,-0.07,0.88,1.63,3.11,-1.09,28.48
317527,0.04,-0.07,0.90,1.63,3.70,-0.92,28.48
317537,0.04,-0.07,0.91,2.05,2.76,-0.50,28.48
317547,0.03,-0.07,0.91,2.00,-0.46,-0.29,28.53
317557,0.03,-0.07,0.91,2.02,-2.92,-0.42,28.44
317567,0.03,-0.08,0.91,2.44,-4.57,-0.85,28.39
317577,0.04,-0.07,0.90,2.96,-4.19,-1.05,28.58
317587,0.04,-0.08,0.89,3.38,-3.02,-1.29,28.53
317597,0.05,-0.08,0.88,3.64,-0.07,-1.76,28.53
317607,0.04,-0.07,0.88,2.37,1.95,-1.86,28.44
317617,0.03,-0.07,0.89,1.08,1.32,-1.49,28.58
317627,0.03,-0.07,0.90,1.26,0.01,-1.16,28.58
317637,0.03,-0.08,0.92,2.72,-0.70,-0.81,28.53
317647,0.03,-0.08,0.93,4.61,-0.95,-0.77,28.53
317657,0.03,-0.07,0.91,5.31,-1.05,-0.63,28.53
317667,0.03,-0.07,0.90,4.40,-1.51,-0.32,28.48
317677,0.03,-0.07,0.89,2.98,-3.30,-0.07,28.58
317687,0.05,-0.07,0.89,1.99,-3.14,0.00,28.53
317697,0.05,-0.07,0.89,1.19,-2.78,-0.18,28.53
317707,0.05,-0.07,0.90,1.25,-1.97,0.07,28.58
317717,0.05,-0.08,0.91,1.15,-2.15,-0.30,28.48
317727,0.04,-0.08,0.92,2.11,-2.11,-1.03,28.48
317737,0.05,-0.08,0.91,3.56,-2.08,-1.43,28.53
317747,0.04,-0.07,0.90,4.66,1.43,-1.08,28.53
317757,0.04,-0.07,0.91,3.97,1.31,-0.51,28.48
317767,0.04,-0.06,0.91,1.56,-0.36,-0.10,28.48
317777,0.03,-0.07,0.90,-0.02,-3.50,-0.01,28.34
317787,0.04,-0.08,0.91,0.63,-5.23,0.56,28.44
317797,0.04,-0.08,0.92,1.78,-4.68,0.05,28.53
317807,0.06,-0.08,0.91,3.08,-3.49,-0.50,28.48
317817,0.05,-0.07,0.91,3.83,-1.84,-0.41,28.58
317827,0.06,-0.07,0.92,2.89,-1.53,-0.52,28.53
317837,0.06,-0.07,0.91,2.92,-3.66,-0.94,28.53
317847,0.07,-0.08,0.90,3.60,-4.19,-1.56,28.53
317857,0.07,-0.08,0.89,4.79,-0.37,-2.40,28.44
317867,0.05,-0.07,0.90,5.37,1.59,-2.56,28.48
317877,0.04,-0.07,0.90,3.30,1.13,-2.05,28.53
317887,0.04,-0.07,0.89,1.61,-0.73,-2.34,28.44
317897,0.03,-0.07,0.89,0.79,-1.37,-2.61,28.48
317907,0.02,-0.07,0.88,0.61,-1.05,-1.85,28.58
317917,0.01,-0.07,0.90,2.04,-0.56,-0.37,28.48
317927,0.03,-0.06,0.91,1.87,-0.67,0.99,28.44
317937,0.04,-0.08,0.92,1.53,-1.73,1.24,28.53
317947,0.05,-0.08,0.92,2.18,-3.99,0.53,28.48
317957,0.06,-0.08,0.90,3.19,-3.65,-0.42,28.48
317967,0.06,-0.08,0.90,4.10,-1.73,-0.42,28.48
317977,0.06,-0.08,0.90,4.07,-0.45,-0.55,28.53
317987,0.05,-0.08,0.90,2.59,-2.32,-0.85,28.44
317997,0.06,-0.07,0.89,1.53,-4.82,-1.17,28.48
318007,0.07,-0.07,0.90,2.69,-5.73,-2.25,28.58
318017,0.06,-0.07,0.86,3.46,-3.76,-2.66,28.48
318027,0.05,-0.07,0.88,2.57,0.63,-2.31,28.53
318037,0.04,-0.07,0.91,2.05,1.98,-2.15,28.44
318047,0.04,-0.07,0.93,0.55,0.51,-1.53,28.44
318057,0.04,-0.08,0.92,0.03,-2.16,-1.17,28.48
318067,0.03,-0.08,0.92,1.66,-2.57,-0.94,28.53
318077,0.04,-0.07,0.91,3.64,-1.88,-0.66,28.53
318087,0.04,-0.07,0.91,3.02,-1.75,-0.56,28.53
318097,0.06,-0.08,0.91,1.65,-3.15,-0.87,28.58
