Timestamp,Acce_X,Acce_Y,Acce_Z,Gyro_X,Gyro_Y,Gyro_Z,Temp
18447,-0.02,-0.20,1.18,-18.47,-8.79,-12.50,31.17
18457,0.00,-0.20,1.17,-18.82,-6.34,-14.44,31.17
18467,0.00,-0.21,1.19,-17.82,-3.61,-16.05,31.07
18477,-0.00,-0.21,1.20,-16.74,3.49,-17.49,31.12
18487,-0.01,-0.21,1.24,-13.86,3.11,-18.87,31.12
18497,-0.04,-0.20,1.27,-9.89,2.23,-20.64,31.12
18507,-0.07,-0.19,1.28,-6.49,2.14,-20.53,31.12
18517,-0.09,-0.18,1.30,-5.02,4.34,-20.42,31.21
18527,-0.12,-0.20,1.36,-4.63,5.24,-19.90,31.12
18537,-0.17,-0.22,1.45,-3.29,7.51,-19.12,31.31
18547,-0.21,-0.24,1.55,5.00,4.50,-16.67,31.17
18557,-0.22,-0.26,1.60,16.28,3.86,-14.16,31.17
18567,-0.21,-0.25,1.59,29.79,5.32,-11.33,31.17
18577,-0.20,-0.25,1.53,40.73,12.00,-8.67,31.17
18587,-0.20,-0.25,1.50,48.40,15.76,-6.75,31.26
18597,-0.20,-0.26,1.48,54.85,14.28,-4.64,31.17
18607,-0.20,-0.25,1.44,59.95,9.51,-3.21,31.21
18617,-0.18,-0.23,1.40,65.03,7.05,-2.09,31.12
18627,-0.15,-0.21,1.35,68.34,8.00,-2.53,31.12
18637,-0.12,-0.20,1.32,65.85,14.02,-5.96,31.12
18647,-0.18,-0.21,1.38,63.15,17.43,-7.18,31.21
18657,-0.22,-0.21,1.49,63.76,17.05,-5.45,31.12
18667,-0.27,-0.23,1.63,72.34,10.41,-1.47,31.17
18677,-0.27,-0.25,1.68,86.91,3.64,3.76,31.17
18687,-0.19,-0.26,1.66,100.54,1.13,6.74,31.17
18697,-0.13,-0.27,1.66,109.25,-2.26,6.96,31.12
18707,-0.08,-0.28,1.68,119.11,-5.81,4.83,31.17
18717,-0.06,-0.30,1.68,132.93,-5.37,2.39,31.12
18727,-0.05,-0.31,1.66,146.73,1.82,-0.02,31.12
18737,-0.08,-0.32,1.69,158.59,4.07,-0.74,31.02
18747,-0.10,-0.36,1.74,171.02,2.08,-0.63,31.21
18757,-0.09,-0.36,1.72,186.03,-5.13,-2.09,31.12
18767,-0.05,-0.35,1.61,201.69,-12.80,-5.98,31.12
18777,-0.00,-0.30,1.40,212.93,-11.83,-10.44,31.17
18787,0.03,-0.25,1.26,217.82,-6.95,-13.99,31.07
18797,0.04,-0.19,1.17,213.47,-0.56,-17.92,31.26
18807,0.07,-0.13,1.10,207.37,5.93,-20.31,31.17
18817,0.10,-0.11,1.08,205.12,14.82,-24.67,31.07
18827,0.10,-0.10,1.08,205.74,20.18,-30.92,31.12
18837,0.03,-0.09,1.12,203.63,17.74,-36.31,31.21
18847,-0.06,-0.06,1.12,204.10,13.57,-37.74,31.12
18857,-0.08,-0.04,1.08,208.42,13.69,-36.65,31.21
18867,-0.10,-0.02,1.01,212.02,18.01,-32.15,31.12
18877,-0.10,0.01,0.97,214.89,24.73,-27.85,31.12
18887,-0.09,0.03,0.93,217.89,30.11,-23.34,31.07
18897,-0.09,0.05,0.90,218.92,29.16,-20.67,31.17
18907,-0.09,0.08,0.84,220.77,22.55,-19.99,31.07
18917,-0.08,0.11,0.79,220.77,17.08,-20.63,31.07
18927,-0.08,0.13,0.71,220.39,13.61,-21.27,31.07
18937,-0.08,0.16,0.65,217.02,15.11,-20.05,31.07
18947,-0.09,0.20,0.63,214.45,17.91,-17.29,31.02
18957,-0.07,0.17,0.60,214.65,21.18,-15.30,31.21
18967,-0.04,0.17,0.57,214.02,27.57,-13.89,31.12
18977,-0.01,0.18,0.56,215.78,33.72,-14.15,31.12
18987,0.01,0.20,0.52,218.95,42.37,-15.34,31.02
18997,0.02,0.25,0.44,220.91,50.31,-18.25,31.12
19007,0.03,0.29,0.35,219.34,54.11,-23.25,31.17
19017,-0.03,0.32,0.29,214.40,49.38,-28.47,31.07
19027,-0.08,0.35,0.24,208.66,38.35,-32.19,31.26
19037,-0.16,0.40,0.17,200.76,27.29,-31.05,31.07
19047,-0.20,0.44,0.15,192.47,15.60,-26.50,31.21
19057,-0.19,0.45,0.10,181.02,8.85,-21.89,31.12
19067,-0.14,0.46,0.05,163.02,14.93,-20.06,31.21
19077,-0.08,0.46,0.06,151.09,21.67,-26.14,31.12
19087,-0.11,0.43,0.10,145.34,23.88,-35.22,31.12
19097,-0.15,0.42,0.12,142.56,20.81,-43.02,31.02
19107,-0.25,0.42,0.09,146.51,13.34,-45.73,31.02
19117,-0.31,0.46,-0.00,147.37,11.53,-42.24,30.98
19127,-0.32,0.48,-0.09,140.69,16.31,-35.45,31.17
19137,-0.29,0.48,-0.12,125.64,30.72,-27.20,31.07
19147,-0.24,0.50,-0.09,115.45,52.02,-20.39,31.17
19157,-0.15,0.49,-0.11,110.77,82.50,-20.29,31.07
19167,-0.16,0.46,-0.07,115.93,96.98,-25.70,31.07
19177,-0.25,0.46,-0.09,123.36,94.19,-30.08,31.12
19187,-0.36,0.46,-0.12,134.58,70.74,-27.43,31.12
19197,-0.43,0.46,-0.23,138.36,48.58,-20.13,31.12
19207,-0.44,0.46,-0.34,131.18,42.68,-9.26,31.12
19217,-0.39,0.43,-0.39,124.70,51.91,2.82,31.12
19227,-0.31,0.38,-0.45,118.20,72.42,13.48,31.02
19237,-0.28,0.37,-0.47,113.18,93.42,23.17,31.07
19247,-0.26,0.43,-0.48,113.53,94.95,32.76,31.17
19257,-0.28,0.43,-0.50,114.41,82.69,37.63,31.07
19267,-0.33,0.43,-0.50,125.85,48.66,46.44,31.07
19277,-0.27,0.45,-0.70,135.27,27.91,54.25,31.17
19287,-0.15,0.44,-0.84,132.46,21.45,55.92,31.07
19297,0.04,0.45,-0.97,111.91,21.49,49.25,31.12
19307,0.10,0.45,-0.93,88.17,45.89,35.60,31.02
19317,0.07,0.43,-0.79,75.21,58.20,23.12,31.12
19327,-0.00,0.40,-0.68,72.57,62.31,14.19,31.12
19337,-0.05,0.43,-0.63,74.75,59.77,5.87,31.12
19347,-0.10,0.49,-0.60,77.72,49.95,-1.43,31.12
19357,-0.14,0.52,-0.61,75.74,37.51,-4.54,31.07
19367,-0.17,0.60,-0.59,71.66,37.48,-5.13,31.07
19377,-0.18,0.63,-0.53,71.97,34.02,-0.49,31.07
19387,-0.14,0.63,-0.51,85.03,25.88,6.04,31.07
19397,-0.06,0.62,-0.62,100.55,26.21,4.99,31.12
19407,-0.03,0.65,-0.74,110.51,28.47,-0.52,31.07
19417,-0.03,0.71,-0.83,109.21,27.87,-6.65,31.02
19427,-0.07,0.77,-0.93,101.58,20.02,-11.08,31.02
19437,-0.13,0.80,-0.91,87.49,3.38,-13.69,31.02
19447,-0.16,0.81,-0.89,75.78,-13.85,-14.05,31.12
19457,-0.17,0.80,-0.86,67.92,-26.04,-15.39,31.12
19467,-0.17,0.81,-0.85,60.52,-34.54,-18.40,31.02
19477,-0.17,0.83,-0.82,54.05,-40.20,-22.89,31.07
19487,-0.20,0.83,-0.78,50.54,-45.07,-29.60,30.98
19497,-0.25,0.84,-0.73,48.87,-49.68,-34.46,31.07
19507,-0.29,0.85,-0.71,50.84,-50.73,-36.92,31.07
19517,-0.31,0.84,-0.71,54.37,-49.69,-38.85,31.07
19527,-0.36,0.85,-0.75,58.30,-49.19,-38.69,31.02
19537,-0.41,0.88,-0.84,56.01,-41.33,-33.95,31.12
19547,-0.46,0.91,-0.90,48.77,-31.59,-25.37,31.02
19557,-0.49,0.92,-0.89,35.97,-20.79,-16.31,31.02
19567,-0.49,0.93,-0.85,27.13,-18.38,-9.70,31.12
19577,-0.47,0.91,-0.84,21.55,-20.30,-5.85,31.02
19587,-0.46,0.90,-0.82,18.30,-23.68,-4.99,31.12
19597,-0.48,0.87,-0.80,16.39,-32.39,-7.40,31.07
19607,-0.50,0.88,-0.80,14.60,-36.70,-8.02,31.07
19617,-0.51,0.89,-0.81,14.75,-37.31,-4.46,30.98
19627,-0.47,0.89,-0.89,7.89,-17.81,0.75,31.07
19637,-0.48,0.90,-0.97,-1.85,8.51,8.20,31.07
19647,-0.53,0.90,-0.96,-9.81,20.45,18.82,30.98
19657,-0.49,0.90,-1.03,-23.97,33.23,27.62,31.12
19667,-0.46,0.87,-1.04,-37.97,44.58,30.79,31.02
19677,-0.48,0.86,-0.94,-42.28,30.31,33.82,31.02
19687,-0.43,0.85,-0.92,-39.36,7.76,37.45,31.12
19697,-0.34,0.83,-0.97,-36.08,-5.09,38.54,31.12
19707,-0.28,0.81,-0.97,-37.15,-10.31,37.32,31.12
19717,-0.24,0.80,-0.96,-39.92,-8.10,37.10,31.07
19727,-0.23,0.81,-0.96,-43.63,0.52,38.17,30.98
19737,-0.23,0.80,-0.97,-50.11,8.39,39.67,31.07
19747,-0.22,0.78,-0.96,-56.73,13.50,40.11,31.21
19757,-0.19,0.78,-0.96,-67.76,11.63,37.44,30.98
19767,-0.16,0.78,-0.99,-81.05,6.07,32.02,30.98
19777,-0.15,0.78,-1.00,-98.02,-2.41,24.75,31.02
19787,-0.13,0.77,-1.01,-115.39,-11.26,15.82,31.12
19797,-0.13,0.75,-1.02,-130.20,-17.33,8.21,31.12
19807,-0.16,0.75,-1.01,-140.80,-19.43,1.63,31.21
19817,-0.18,0.76,-0.99,-147.56,-21.05,-3.71,31.02
19827,-0.19,0.78,-0.99,-151.44,-24.50,-7.63,31.17
19837,-0.23,0.79,-0.99,-158.46,-21.13,-10.42,30.98
19847,-0.27,0.81,-0.96,-167.31,-20.42,-10.96,31.07
19857,-0.30,0.82,-0.92,-180.08,-24.85,-11.63,30.98
19867,-0.33,0.81,-0.89,-196.87,-34.69,-11.96,31.17
19877,-0.37,0.78,-0.83,-212.76,-55.92,-13.27,31.12
19887,-0.38,0.79,-0.79,-221.50,-87.30,-12.19,31.02
19897,-0.36,0.79,-0.80,-229.35,-110.44,-9.17,31.02
19907,-0.34,0.78,-0.81,-239.27,-116.43,-3.17,31.12
19917,-0.31,0.74,-0.72,-242.81,-111.50,7.29,31.12
19927,-0.24,0.70,-0.66,-246.70,-80.20,18.27,31.12
19937,-0.27,0.67,-0.49,-241.29,-50.44,26.02,31.12
19947,-0.29,0.65,-0.37,-233.53,-31.89,33.47,30.98
19957,-0.33,0.64,-0.27,-222.44,-34.12,37.31,31.07
19967,-0.35,0.64,-0.24,-216.50,-57.11,37.12,31.07
19977,-0.34,0.61,-0.23,-218.17,-87.28,38.60,31.07
19987,-0.28,0.58,-0.29,-224.98,-104.06,42.06,31.07
19997,-0.17,0.52,-0.34,-233.98,-92.82,51.40,31.17
20007,-0.09,0.48,-0.31,-240.72,-53.24,60.55,31.02
20017,-0.06,0.42,-0.19,-246.93,-2.01,64.02,31.12
20027,-0.13,0.41,-0.03,-243.73,24.98,68.32,31.12
20037,-0.19,0.36,0.11,-235.11,25.30,71.66,31.12
20047,-0.20,0.31,0.30,-218.79,-16.93,74.93,31.02
20057,-0.13,0.27,0.35,-200.32,-67.13,75.57,31.21
20067,-0.02,0.22,0.33,-188.03,-90.91,72.79,31.07
20077,0.10,0.18,0.31,-184.06,-85.69,68.32,31.07
20087,0.15,0.15,0.35,-188.79,-61.51,62.22,31.17
20097,0.18,0.14,0.39,-197.83,-23.08,55.28,31.07
20107,0.18,0.12,0.46,-206.49,20.89,46.74,31.07
20117,0.11,0.12,0.59,-207.66,47.92,37.24,31.07
20127,0.01,0.14,0.68,-198.34,43.73,28.99,31.12
20137,-0.02,0.16,0.70,-184.66,29.38,25.47,31.12
20147,-0.04,0.17,0.70,-168.34,15.38,24.52,31.12
20157,-0.02,0.18,0.66,-156.56,12.09,25.31,31.02
20167,0.01,0.18,0.64,-149.23,13.73,24.97,31.02
20177,0.05,0.18,0.61,-151.54,20.73,21.60,31.02
20187,0.02,0.18,0.64,-157.71,24.30,16.18,31.07
20197,-0.00,0.18,0.67,-165.47,25.56,11.88,31.17
20207,-0.01,0.17,0.71,-166.83,25.52,10.63,31.07
20217,-0.01,0.13,0.74,-164.27,25.09,10.23,31.07
20227,-0.02,0.11,0.75,-161.42,21.66,7.67,31.12
20237,-0.04,0.09,0.79,-159.53,11.25,4.95,31.17
20247,-0.05,0.07,0.78,-161.05,1.31,4.32,30.93
20257,-0.05,0.07,0.81,-162.64,-5.38,6.33,31.12
20267,-0.03,0.05,0.82,-162.09,-4.60,10.57,31.12
20277,-0.02,0.03,0.83,-161.35,0.19,15.70,31.12
20287,0.00,0.01,0.88,-160.35,-0.18,16.27,31.02
20297,-0.01,0.02,0.94,-159.41,-6.90,11.37,31.12
20307,-0.11,0.03,1.03,-156.81,-29.88,8.71,31.07
20317,-0.15,0.01,1.05,-149.92,-48.38,12.57,31.07
20327,-0.11,-0.04,1.01,-140.51,-50.94,20.64,31.07
20337,-0.05,-0.06,0.93,-134.60,-39.21,26.77,31.07
20347,-0.01,-0.06,0.85,-139.16,-20.15,30.66,31.17
20357,0.00,-0.05,0.89,-152.12,-4.34,31.85,31.21
20367,-0.05,-0.09,0.98,-164.31,-0.53,32.65,31.12
20377,-0.07,-0.10,1.08,-169.34,-8.00,33.34,31.21
20387,-0.08,-0.13,1.18,-168.61,-21.34,33.89,31.12
20397,-0.05,-0.20,1.23,-160.56,-36.28,34.59,31.02
20407,-0.01,-0.25,1.24,-151.46,-42.98,36.43,31.12
20417,0.04,-0.26,1.22,-142.85,-56.14,35.71,31.02
20427,0.15,-0.26,1.08,-134.02,-49.91,26.37,31.17
20437,0.14,-0.25,1.11,-133.82,-8.20,22.08,31.07
20447,0.13,-0.23,1.14,-130.50,-6.77,20.59,30.98
20457,0.09,-0.23,1.11,-131.52,3.94,13.47,31.07
20467,0.03,-0.25,1.18,-128.47,3.21,7.50,31.07
20477,-0.05,-0.26,1.26,-123.12,-7.75,4.59,31.07
20487,-0.09,-0.27,1.29,-118.94,-8.46,4.29,31.02
20497,-0.10,-0.27,1.31,-111.58,-7.32,9.16,31.12
20507,-0.03,-0.28,1.31,-98.55,5.22,12.29,31.12
20517,0.03,-0.31,1.27,-84.30,25.03,11.60,31.02
20527,0.06,-0.32,1.22,-73.02,43.95,9.09,31.12
20537,0.08,-0.32,1.19,-69.35,62.80,3.98,31.02
20547,0.06,-0.32,1.23,-74.06,72.49,-3.94,31.12
20557,-0.05,-0.31,1.34,-80.63,68.87,-16.27,31.07
20567,-0.19,-0.32,1.46,-79.70,40.87,-23.21,31.07
20577,-0.25,-0.32,1.47,-65.67,2.49,-15.08,31.07
20587,-0.17,-0.32,1.36,-50.53,-18.39,-9.27,31.07
20597,-0.05,-0.37,1.31,-38.53,-11.66,-4.55,31.07
20607,0.05,-0.30,1.12,-28.80,20.77,-0.92,31.07
20617,0.13,-0.33,1.14,-23.86,64.28,0.30,31.02
20627,0.04,-0.33,1.10,-24.55,63.42,4.24,31.12
20637,0.05,-0.34,1.18,-25.55,67.42,-2.57,31.12
20647,-0.06,-0.37,1.26,-25.44,46.20,-2.17,31.02
20657,-0.10,-0.39,1.31,-23.46,18.24,3.11,31.02
20667,-0.04,-0.37,1.30,-18.84,-5.73,5.38,31.12
20677,0.03,-0.39,1.27,-2.46,-13.04,2.79,31.07
20687,0.00,-0.36,1.21,9.34,-17.00,-0.33,31.17
20697,-0.03,-0.32,1.13,16.96,-23.12,-2.82,31.17
20707,-0.06,-0.29,1.05,19.37,-22.91,-2.81,31.07
20717,-0.09,-0.27,1.00,16.61,-18.95,-0.36,31.07
20727,-0.12,-0.27,1.01,12.84,-18.05,3.63,31.17
20737,-0.11,-0.22,0.98,10.40,-12.98,7.78,31.02
20747,-0.10,-0.20,0.96,8.15,-5.04,10.74,31.02
20757,-0.06,-0.23,1.01,7.93,8.11,8.95,31.12
20767,-0.10,-0.24,1.11,9.96,14.24,4.89,31.12
20777,-0.13,-0.22,1.24,14.18,16.35,5.50,31.02
20787,-0.15,-0.23,1.29,11.40,7.50,6.11,31.12
20797,-0.15,-0.22,1.36,11.11,5.42,6.83,31.12
20807,-0.13,-0.22,1.36,11.63,-0.24,8.85,31.17
20817,-0.08,-0.22,1.35,13.28,-0.08,8.26,31.07
20827,-0.05,-0.21,1.32,12.46,1.09,4.71,31.17
20837,-0.03,-0.22,1.31,11.53,6.70,1.07,31.07
20847,-0.05,-0.20,1.34,12.32,5.69,-5.51,31.07
20857,-0.08,-0.21,1.36,18.37,1.22,-10.98,31.17
20867,-0.13,-0.18,1.33,22.44,-6.26,-11.65,31.02
20877,-0.12,-0.16,1.27,21.01,-8.95,-12.11,31.02
20887,-0.08,-0.13,1.26,11.81,1.05,-14.63,31.12
20897,-0.05,-0.14,1.27,2.40,12.89,-18.90,31.12
20907,-0.07,-0.14,1.29,0.97,17.25,-22.59,31.02
20917,-0.10,-0.15,1.32,5.05,23.53,-25.25,31.02
20927,-0.14,-0.15,1.36,13.29,21.60,-24.40,31.17
20937,-0.16,-0.14,1.34,18.49,17.85,-22.02,30.98
20947,-0.18,-0.12,1.31,20.96,14.57,-17.40,31.07
20957,-0.19,-0.13,1.26,21.39,6.59,-12.07,31.07
20967,-0.15,-0.10,1.22,22.84,2.27,-6.91,31.12
20977,-0.11,-0.11,1.18,23.00,-1.73,-2.64,31.07
20987,-0.08,-0.11,1.14,22.51,-1.77,-0.82,31.12
20997,-0.08,-0.09,1.13,22.29,-3.50,-0.90,31.12
21007,-0.11,-0.09,1.14,19.66,-9.73,0.30,31.02
21017,-0.11,-0.10,1.15,17.92,-17.87,2.40,31.21
21027,-0.12,-0.09,1.13,16.59,-28.50,5.37,31.02
21037,-0.11,-0.08,1.10,14.14,-36.30,9.43,31.12
21047,-0.04,-0.09,1.06,9.86,-33.02,10.74,31.07
21057,-0.01,-0.10,1.05,5.47,-27.18,9.90,31.07
21067,0.02,-0.11,1.04,3.20,-15.87,5.20,31.07
21077,-0.00,-0.11,1.04,1.40,-9.02,2.85,31.17
21087,0.00,-0.10,1.07,-2.75,-6.32,0.40,31.07
21097,-0.03,-0.11,1.07,-5.07,-6.92,0.11,31.02
21107,-0.03,-0.11,1.05,-8.86,-7.30,0.77,31.12
21117,-0.02,-0.10,1.05,-9.31,-7.37,1.78,31.12
21127,-0.01,-0.13,1.05,-8.18,-4.09,0.40,31.02
21137,-0.01,-0.12,1.05,-6.60,0.05,-0.72,31.12
21147,-0.03,-0.13,1.13,3.56,-0.89,-0.05,31.12
21157,-0.03,-0.14,1.14,14.48,-1.32,1.82,31.12
21167,-0.02,-0.12,1.13,19.51,1.38,2.34,31.07
21177,-0.02,-0.12,1.09,21.29,-0.87,2.89,31.17
21187,0.01,-0.10,1.06,19.40,-2.68,1.05,31.17
21197,0.01,-0.10,1.01,15.34,-2.39,-0.29,30.98
21207,0.01,-0.10,0.99,11.29,1.39,-1.50,31.07
21217,-0.01,-0.08,0.99,6.21,4.53,-2.05,31.07
21227,-0.03,-0.07,1.02,-0.02,6.08,-2.50,31.02
21237,-0.04,-0.08,1.02,-4.80,5.85,-1.97,31.12
21247,-0.03,-0.08,1.02,-8.73,7.80,-1.32,31.12
21257,-0.03,-0.08,1.04,-12.11,11.89,-1.75,31.12
21267,-0.02,-0.09,1.09,-11.12,12.09,-3.07,31.12
21277,-0.04,-0.11,1.10,-7.93,11.81,-2.99,31.12
21287,-0.06,-0.10,1.11,-5.11,11.82,-1.24,31.02
21297,-0.06,-0.10,1.09,-3.98,9.02,1.14,31.17
21307,-0.04,-0.09,1.08,-6.08,9.51,1.76,31.07
21317,-0.05,-0.09,1.05,-6.85,8.40,2.20,31.07
21327,-0.05,-0.08,1.03,-8.61,8.73,2.41,31.07
21337,-0.04,-0.08,1.04,-9.51,9.24,1.72,31.07
21347,-0.04,-0.09,1.07,-9.08,5.20,0.53,31.07
21357,-0.05,-0.10,1.08,-8.76,1.47,0.38,31.12
21367,-0.04,-0.10,1.09,-8.79,-1.56,-0.58,31.02
21377,-0.03,-0.11,1.08,-6.95,-4.95,-2.25,31.12
21387,-0.04,-0.11,1.06,-6.40,-3.68,-3.50,31.12
21397,-0.03,-0.11,1.07,-4.88,-0.23,-3.31,31.02
21407,-0.04,-0.10,1.07,-3.85,3.01,-2.93,31.02
21417,-0.06,-0.10,1.07,-2.80,4.13,-1.88,31.07
21427,-0.05,-0.10,1.05,-3.32,4.47,-1.62,31.07
21437,-0.05,-0.10,1.05,-3.79,3.89,-1.33,31.07
21447,-0.06,-0.10,1.04,-4.63,2.05,-0.64,31.17
21457,-0.05,-0.10,1.03,-4.75,0.85,-0.58,30.98
21467,-0.05,-0.10,1.05,-4.37,0.84,-0.94,31.07
21477,-0.05,-0.11,1.03,-3.67,1.71,-1.04,31.07
21487,-0.05,-0.10,1.04,-3.78,1.11,-0.78,31.12
21497,-0.06,-0.10,1.04,-5.12,0.02,-0.35,31.12
21507,-0.07,-0.10,1.05,-7.22,-1.38,0.22,31.12
21517,-0.06,-0.11,1.08,-6.69,-4.16,0.37,31.02
21527,-0.06,-0.11,1.09,-3.83,-6.50,0.58,31.12
21537,-0.05,-0.11,1.08,-1.63,-5.94,0.98,31.12
21547,-0.05,-0.11,1.06,-0.10,-5.46,1.04,31.07
21557,-0.05,-0.10,1.04,-1.17,-6.00,1.98,31.07
21567,-0.05,-0.10,1.05,-2.27,-7.06,1.88,31.07
21577,-0.02,-0.11,1.02,-2.56,-5.08,0.56,30.98
21587,-0.01,-0.10,1.03,-3.90,1.26,-1.34,31.17
21597,-0.04,-0.10,1.05,-5.12,3.98,-1.76,31.07
21607,-0.05,-0.10,1.06,-6.48,3.51,-1.95,31.02
21617,-0.07,-0.11,1.06,-6.18,-0.18,-0.61,31.02
21627,-0.06,-0.11,1.07,-4.34,-1.40,0.19,31.12
21637,-0.05,-0.11,1.05,-2.95,0.54,0.31,31.12
21647,-0.05,-0.10,1.04,-3.79,2.84,1.44,31.02
21657,-0.05,-0.10,1.03,-5.82,4.45,2.07,31.02
21667,-0.05,-0.10,1.04,-6.81,4.98,2.18,31.07
21677,-0.04,-0.09,1.01,-8.08,6.08,1.89,31.07
21687,-0.05,-0.10,1.02,-8.09,5.00,1.85,31.07
21697,-0.06,-0.11,1.06,-6.70,0.19,3.08,31.07
21707,-0.04,-0.11,1.06,-6.10,-0.52,3.65,31.02
21717,-0.03,-0.11,1.06,-5.13,0.09,3.93,31.07
21727,-0.02,-0.12,1.07,-4.11,-0.05,3.09,31.02
21737,-0.02,-0.12,1.02,-3.57,0.27,2.29,31.12
21747,-0.02,-0.11,1.04,-3.95,0.40,2.15,31.02
21757,-0.02,-0.11,1.03,-4.82,0.69,2.19,31.12
21767,-0.02,-0.10,1.03,-5.58,2.21,2.25,31.12
21777,-0.03,-0.10,1.04,-6.76,1.61,2.02,31.12
21787,-0.02,-0.10,1.04,-7.30,1.59,1.45,31.07
21797,-0.01,-0.11,1.04,-7.78,3.51,0.60,31.07
21807,-0.02,-0.11,1.05,-7.56,4.67,0.40,31.07
21817,-0.03,-0.11,1.06,-6.75,3.21,0.37,31.17
21827,-0.04,-0.10,1.05,-6.25,3.45,0.53,31.07
21837,-0.04,-0.11,1.04,-6.11,3.69,0.78,31.12
21847,-0.05,-0.10,1.04,-7.08,3.14,0.84,31.12
21857,-0.05,-0.10,1.05,-7.81,0.73,1.16,31.12
21867,-0.05,-0.11,1.07,-6.98,-0.92,1.96,31.21
21877,-0.04,-0.12,1.08,-6.68,-0.95,2.11,31.12
21887,-0.04,-0.11,1.09,-5.79,-1.31,1.66,31.12
21897,-0.03,-0.11,1.08,-5.76,-0.20,0.99,31.12
21907,-0.03,-0.12,1.08,-5.89,0.69,0.19,31.12
21917,-0.04,-0.11,1.07,-6.16,1.18,-0.58,31.07
21927,-0.05,-0.11,1.06,-6.03,2.05,-0.40,31.17
21937,-0.06,-0.11,1.07,-5.56,2.37,0.38,31.07
21947,-0.06,-0.11,1.06,-5.62,2.02,1.48,31.17
21957,-0.06,-0.11,1.06,-6.03,2.49,2.53,31.17
21967,-0.05,-0.12,1.06,-5.51,2.58,2.73,31.12
21977,-0.04,-0.11,1.05,-5.66,3.20,2.57,31.02
21987,-0.05,-0.11,1.06,-6.39,3.71,2.85,31.02
21997,-0.06,-0.11,1.05,-7.06,2.30,3.16,31.02
22007,-0.06,-0.11,1.06,-7.44,1.11,3.85,31.12
22017,-0.03,-0.12,1.04,-7.15,-0.02,3.94,31.12
22027,-0.03,-0.13,1.06,-7.11,-0.03,3.33,31.12
22037,-0.02,-0.13,1.05,-6.80,1.34,2.45,31.17
22047,-0.02,-0.13,1.06,-6.23,3.69,1.76,31.07
22057,-0.03,-0.14,1.08,-4.27,3.30,1.58,31.07
22067,-0.04,-0.13,1.05,-2.66,3.78,1.65,31.07
22077,-0.05,-0.13,1.03,-2.37,4.31,1.85,30.98
22087,-0.06,-0.13,1.01,-3.00,2.70,2.77,30.98
22097,-0.05,-0.12,0.99,-4.77,2.34,3.79,31.12
22107,-0.04,-0.13,1.00,-7.19,2.21,4.14,31.12
22117,-0.04,-0.13,1.00,-8.74,1.79,4.32,31.12
22127,-0.03,-0.12,1.01,-10.16,1.30,4.61,31.12
22137,-0.03,-0.14,1.05,-10.82,0.07,3.99,31.12
22147,-0.02,-0.13,1.05,-10.85,-0.37,4.29,31.12
22157,-0.01,-0.13,1.06,-9.73,-0.61,4.27,31.07
22167,-0.00,-0.13,1.07,-8.69,-0.66,3.53,31.07
22177,0.01,-0.13,1.08,-7.95,1.04,2.80,31.17
22187,0.01,-0.13,1.09,-7.47,1.15,1.45,31.07
22197,0.01,-0.13,1.08,-7.21,1.53,0.32,31.17
22207,-0.00,-0.13,1.08,-6.68,1.79,-0.82,31.17
22217,-0.02,-0.12,1.08,-6.38,1.16,-1.12,31.02
22227,-0.03,-0.12,1.08,-6.25,0.25,-0.65,31.21
22237,-0.03,-0.11,1.07,-6.29,0.79,-0.66,31.12
22247,-0.04,-0.11,1.06,-7.29,2.72,-0.01,31.12
22257,-0.03,-0.11,1.08,-8.69,3.37,0.44,31.12
22267,-0.03,-0.12,1.08,-9.16,3.18,0.59,31.12
22277,-0.04,-0.12,1.10,-9.39,3.26,0.37,31.07
22287,-0.03,-0.13,1.11,-7.95,1.92,-0.11,31.07
22297,-0.04,-0.13,1.11,-5.92,1.95,-0.15,31.07
22307,-0.03,-0.13,1.10,-4.35,3.37,-0.34,31.07
22317,-0.04,-0.13,1.11,-3.40,3.90,-0.75,31.12
22327,-0.04,-0.13,1.11,-3.27,3.42,-1.00,31.17
22337,-0.05,-0.12,1.09,-2.85,2.69,-1.18,31.12
22347,-0.05,-0.12,1.09,-3.30,2.33,-0.85,31.12
22357,-0.05,-0.12,1.09,-3.89,2.09,-0.63,31.12
22367,-0.04,-0.13,1.09,-3.27,2.63,0.04,31.02
22377,-0.03,-0.13,1.08,-2.76,4.16,-0.47,31.02
22387,-0.04,-0.13,1.09,-1.35,3.35,-0.55,31.02
22397,-0.05,-0.12,1.08,-0.92,2.35,-0.72,31.07
22407,-0.04,-0.14,1.07,-0.48,2.46,-0.63,31.07
22417,-0.04,-0.13,1.07,-0.46,4.47,0.01,31.17
22427,-0.05,-0.13,1.08,-0.50,5.08,-0.15,31.07
22437,-0.06,-0.12,1.07,-0.56,3.79,0.41,31.17
22447,-0.05,-0.13,1.05,-0.06,2.44,0.60,31.12
22457,-0.04,-0.13,1.05,0.31,1.99,0.86,31.12
22467,-0.04,-0.13,1.05,-0.73,2.21,0.99,31.12
22477,-0.03,-0.14,1.05,-1.10,1.32,0.17,31.12
22487,-0.04,-0.14,1.05,0.05,-0.60,-0.38,31.02
22497,-0.06,-0.13,1.05,2.86,-1.53,-0.18,31.21
22507,-0.05,-0.13,1.02,3.02,0.48,-0.02,31.12
22517,-0.04,-0.13,1.02,1.47,3.00,0.84,31.07
22527,-0.06,-0.12,1.01,-1.02,3.65,1.50,30.98
22537,-0.05,-0.13,1.02,-2.91,2.48,1.95,31.07
22547,-0.05,-0.12,1.03,-3.47,0.99,2.21,31.07
22557,-0.04,-0.13,1.04,-3.12,-0.48,2.04,31.17
22567,-0.03,-0.13,1.04,-3.29,0.06,1.41,31.17
22577,-0.02,-0.13,1.03,-3.56,0.98,1.15,31.12
22587,-0.01,-0.13,1.04,-3.69,2.34,0.39,31.12
22597,-0.03,-0.13,1.04,-2.67,1.47,-0.27,31.12
22607,-0.02,-0.12,1.03,-2.85,2.58,-1.08,31.12
22617,-0.04,-0.12,1.03,-3.29,2.69,-1.21,31.12
22627,-0.04,-0.12,1.04,-4.16,2.14,-0.68,31.07
22637,-0.05,-0.11,1.04,-5.23,1.99,-0.24,31.07
22647,-0.04,-0.12,1.05,-5.69,1.76,-0.02,31.17
22657,-0.04,-0.13,1.06,-4.53,0.50,-0.65,31.17
22667,-0.05,-0.13,1.05,-3.36,-0.25,-0.40,31.02
22677,-0.05,-0.12,1.03,-3.77,1.00,0.33,31.07
22687,-0.04,-0.12,1.04,-4.40,2.50,0.44,31.12
22697,-0.03,-0.12,1.04,-6.05,3.26,0.00,31.12
22707,-0.04,-0.12,1.05,-7.11,2.27,-0.24,31.21
22717,-0.04,-0.12,1.06,-7.70,1.46,-0.18,31.02
22727,-0.02,-0.13,1.08,-5.61,1.65,-1.27,31.12
22737,-0.03,-0.13,1.09,-2.89,1.47,-2.63,31.07
22747,-0.04,-0.12,1.08,-1.00,3.24,-2.87,31.07
22757,-0.06,-0.12,1.08,-0.63,3.21,-1.95,31.07
22767,-0.06,-0.12,1.06,-1.22,1.88,-1.08,31.17
22777,-0.07,-0.10,1.06,-2.21,0.52,-0.46,31.07
22787,-0.07,-0.10,1.04,-3.93,-0.90,0.56,31.17
22797,-0.05,-0.11,1.04,-4.76,-0.31,0.47,31.02
22807,-0.02,-0.12,1.06,-4.79,2.55,-1.36,31.12
22817,-0.04,-0.12,1.08,-3.10,1.80,-1.80,31.12
22827,-0.05,-0.12,1.08,-2.29,2.50,-1.61,31.12
22837,-0.05,-0.12,1.08,-1.69,2.01,-1.14,31.12
22847,-0.06,-0.11,1.06,-2.31,2.18,-0.77,31.17
22857,-0.06,-0.11,1.07,-3.00,1.26,-0.08,31.07
22867,-0.06,-0.12,1.06,-3.27,0.63,0.69,31.17
22877,-0.05,-0.13,1.06,-1.58,0.18,0.79,31.07
22887,-0.04,-0.13,1.04,-0.74,0.60,0.76,31.12
22897,-0.05,-0.11,1.03,-1.97,1.57,0.89,31.17
22907,-0.05,-0.11,1.04,-3.90,0.50,1.29,31.12
22917,-0.05,-0.11,1.05,-5.32,-1.20,1.99,31.12
22927,-0.03,-0.12,1.03,-5.76,1.17,2.02,31.02
22937,-0.02,-0.13,1.04,-5.84,5.34,0.37,31.12
22947,-0.02,-0.12,1.06,-5.76,6.55,-0.47,31.12
22957,-0.04,-0.13,1.06,-6.73,6.22,-1.12,30.98
22967,-0.06,-0.13,1.07,-5.28,3.98,-0.84,31.17
22977,-0.06,-0.13,1.07,-3.60,2.25,0.11,31.07
22987,-0.07,-0.10,1.09,-4.49,-0.73,0.73,31.07
22997,-0.05,-0.13,1.06,-1.54,0.75,1.43,31.07
23007,-0.03,-0.13,1.05,-0.95,-0.08,1.84,31.02
23017,-0.04,-0.12,1.04,-1.43,0.30,1.56,31.21
23027,-0.03,-0.12,1.03,-2.55,0.21,1.40,31.12
23037,-0.03,-0.12,1.03,-3.66,0.14,0.76,31.21
23047,-0.03,-0.12,1.05,-4.44,0.33,0.40,31.12
23057,-0.04,-0.13,1.04,-4.74,0.24,-0.04,31.12
23067,-0.04,-0.12,1.03,-3.96,-0.57,0.02,31.07
23077,-0.06,-0.11,1.03,-4.47,0.33,0.58,31.07
23087,-0.05,-0.11,1.03,-5.00,0.79,1.52,31.17
23097,-0.04,-0.12,1.04,-5.55,1.05,1.78,31.07
23107,-0.03,-0.12,1.06,-5.92,1.54,1.73,31.12
23117,-0.02,-0.12,1.08,-5.60,0.63,1.22,31.02
23127,-0.03,-0.12,1.07,-5.11,0.66,0.09,31.02
23137,-0.03,-0.12,1.06,-4.76,2.38,-0.59,31.12
23147,-0.04,-0.12,1.08,-3.93,2.51,-0.47,31.12
23157,-0.05,-0.12,1.06,-3.91,1.68,-0.52,31.12
23167,-0.05,-0.11,1.06,-4.54,1.79,-0.11,31.02
23177,-0.06,-0.12,1.05,-5.22,0.82,0.51,31.17
23187,-0.04,-0.11,1.04,-9.28,5.90,0.32,31.07
23197,-0.05,-0.12,1.10,-6.59,0.67,0.73,31.07
23207,-0.04,-0.12,1.06,-5.87,2.17,0.73,31.17
23217,-0.05,-0.12,1.07,-4.83,3.85,0.54,31.07
23227,-0.05,-0.12,1.08,-5.06,1.04,0.94,31.07
23237,-0.04,-0.12,1.08,-5.71,0.60,1.02,31.12
23247,-0.05,-0.12,1.08,-4.92,0.62,1.73,31.12
23257,-0.04,-0.13,1.07,-3.97,1.05,1.79,31.12
23267,-0.03,-0.12,1.07,-3.78,1.39,1.47,31.12
23277,-0.03,-0.12,1.07,-4.49,1.52,0.73,31.02
23287,-0.03,-0.12,1.07,-5.44,1.69,1.24,31.02
23297,-0.01,-0.13,1.06,-5.11,0.91,-0.09,31.07
23307,-0.03,-0.13,1.08,-4.93,0.54,-0.56,31.07
23317,-0.03,-0.13,1.08,-2.83,1.11,-0.69,31.07
23327,-0.04,-0.13,1.06,-2.01,1.58,-0.60,31.12
23337,-0.04,-0.12,1.06,-2.42,1.31,-0.29,31.07
23347,-0.05,-0.12,1.05,-2.98,1.31,0.63,31.12
23357,-0.05,-0.12,1.04,-4.00,1.34,1.24,31.12
23367,-0.03,-0.12,1.05,-4.09,1.98,1.22,31.12
23377,-0.02,-0.13,1.05,-4.44,2.85,0.08,31.12
23387,-0.03,-0.13,1.06,-4.26,3.46,-1.08,31.21
23397,-0.04,-0.13,1.05,-4.32,2.85,-0.89,31.12
23407,-0.05,-0.12,1.05,-4.66,1.91,-0.44,31.07
23417,-0.04,-0.13,1.06,-5.01,0.57,-0.05,31.07
23427,-0.04,-0.13,1.04,-4.68,0.63,-0.56,31.17
23437,-0.04,-0.13,1.04,-4.33,2.66,-1.13,31.17
