Timestamp,Acce_X,Acce_Y,Acce_Z,Gyro_X,Gyro_Y,Gyro_Z,Temp
425567,0.05,-0.02,0.93,1.30,-0.89,-4.31,28.34
425577,0.04,-0.01,0.93,1.38,-0.42,-5.09,28.39
425587,0.02,-0.01,0.94,1.06,0.67,-5.24,28.29
425597,0.02,-0.01,0.97,1.39,-1.18,-4.25,28.29
425607,0.03,-0.01,0.95,1.98,-3.38,-3.44,28.34
425617,0.04,-0.01,0.93,2.40,-2.87,-3.34,28.44
425627,0.04,-0.01,0.94,2.76,-2.40,-4.06,28.39
425637,0.04,-0.01,0.92,2.11,-2.63,-4.45,28.29
425647,0.02,-0.00,0.93,0.70,-3.66,-4.51,28.34
425657,0.02,-0.01,0.91,-0.84,-4.58,-4.65,28.34
425667,0.03,-0.01,0.92,-1.82,-4.01,-4.58,28.34
425677,0.04,-0.01,0.93,-2.92,-2.31,-4.64,28.39
425687,0.03,-0.01,0.93,-4.32,-1.89,-4.39,28.29
425697,0.05,-0.01,0.95,-5.48,-1.66,-4.50,28.34
425707,0.06,-0.01,0.94,-7.48,1.12,-4.96,28.34
425717,0.04,-0.02,0.97,-4.98,-1.12,-5.88,28.39
425727,0.06,-0.02,0.94,-6.23,0.96,-6.21,28.29
425737,0.05,-0.00,0.94,-10.26,-3.18,-7.31,28.39
425747,0.04,-0.01,0.97,-12.33,-8.34,-8.53,28.25
425757,0.03,-0.01,1.02,-13.95,-10.78,-8.55,28.34
425767,0.04,-0.01,1.02,-10.95,-7.76,-9.03,28.29
425777,0.05,0.00,1.03,-9.49,-0.38,-9.21,28.39
425787,0.05,0.02,1.07,-9.21,8.16,-9.14,28.34
425797,0.05,0.04,1.11,-11.48,12.44,-8.97,28.34
425807,0.06,0.04,1.17,-13.92,12.05,-10.51,28.34
425817,0.06,0.04,1.28,-13.60,12.48,-13.28,28.39
425827,0.05,0.04,1.40,-10.49,15.02,-15.13,28.20
425837,0.01,0.04,1.49,-5.89,13.42,-17.73,28.34
425847,-0.02,0.05,1.57,0.34,16.13,-17.47,28.44
425857,-0.06,0.05,1.65,8.32,19.56,-14.35,28.25
425867,-0.06,0.05,1.77,21.84,18.68,-9.83,28.29
425877,-0.00,0.02,1.83,40.92,11.74,-10.44,28.39
425887,0.06,0.00,1.78,58.73,6.61,-15.52,28.34
425897,0.06,-0.01,1.74,72.14,2.09,-21.00,28.44
425907,0.03,-0.02,1.78,82.37,-2.75,-23.08,28.39
425917,-0.01,-0.03,1.80,94.62,-10.61,-22.06,28.29
425927,0.02,-0.03,1.78,108.60,-8.60,-20.34,28.39
425937,0.04,-0.04,1.69,120.70,-5.89,-19.56,28.34
425947,0.06,-0.03,1.58,127.38,-2.34,-18.31,28.34
425957,0.09,-0.02,1.50,131.33,-1.21,-19.60,28.39
425967,0.11,-0.01,1.41,133.39,1.15,-21.79,28.39
425977,0.10,0.00,1.37,132.91,1.78,-23.69,28.25
425987,0.07,0.01,1.35,129.02,1.53,-23.87,28.25
425997,0.08,0.00,1.35,126.12,6.46,-21.31,28.44
426007,0.05,-0.01,1.34,122.58,13.73,-15.82,28.39
426017,0.10,-0.02,1.32,118.89,15.94,-11.92,28.29
426027,0.11,-0.04,1.21,118.09,18.73,-7.76,28.34
426037,0.13,-0.05,1.20,114.47,23.05,-4.95,28.34
426047,0.15,-0.10,1.23,116.98,24.08,-5.56,28.34
426057,0.10,-0.11,1.19,118.66,20.34,-3.45,28.39
426067,0.13,-0.13,1.13,118.91,29.05,-0.83,28.29
426077,0.15,-0.14,1.08,121.24,47.17,1.62,28.34
426087,0.13,-0.16,1.03,121.27,60.26,2.95,28.34
426097,0.10,-0.14,0.97,117.28,64.66,4.94,28.39
426107,0.10,-0.16,0.94,117.15,59.59,2.18,28.29
426117,0.09,-0.18,1.01,131.79,45.58,-4.97,28.34
426127,0.05,-0.16,1.00,141.40,26.17,-9.44,28.34
426137,0.01,-0.14,0.96,145.39,6.41,-10.98,28.25
426147,0.01,-0.12,0.92,156.11,-0.40,-11.31,28.39
426157,0.06,-0.09,0.82,169.07,11.60,-11.68,28.29
426167,0.10,-0.07,0.70,179.02,40.98,-12.25,28.34
426177,0.07,-0.02,0.65,183.34,68.87,-11.82,28.25
426187,0.04,0.01,0.64,190.39,80.50,-11.40,28.39
426197,0.05,0.03,0.62,195.69,83.08,-10.60,28.29
426207,0.06,0.06,0.58,199.89,79.57,-11.81,28.25
426217,0.01,0.09,0.55,199.48,71.59,-10.70,28.25
426227,0.04,0.11,0.53,198.37,69.05,-11.59,28.34
426237,0.06,0.15,0.49,198.81,67.05,-13.82,28.34
426247,0.08,0.16,0.42,196.58,73.24,-19.41,28.39
426257,0.04,0.18,0.42,190.60,71.91,-24.47,28.34
426267,-0.03,0.19,0.45,187.82,63.76,-28.01,28.34
426277,-0.11,0.20,0.44,188.89,55.26,-25.98,28.20
426287,-0.12,0.22,0.43,195.61,54.74,-20.85,28.29
426297,-0.10,0.23,0.40,209.82,67.29,-15.34,28.25
426307,-0.07,0.24,0.34,220.92,91.36,-9.28,28.34
426317,-0.06,0.23,0.31,227.86,106.65,-5.08,28.25
426327,-0.08,0.23,0.32,230.11,111.12,-1.56,28.39
426337,-0.11,0.23,0.31,232.84,102.69,1.73,28.29
426347,-0.10,0.25,0.28,237.76,93.21,6.50,28.34
426357,-0.08,0.25,0.21,242.60,87.43,9.37,28.25
426367,-0.03,0.24,0.12,245.90,84.24,6.85,28.29
426377,-0.02,0.24,0.02,245.69,83.37,2.76,28.20
426387,-0.07,0.25,-0.02,243.82,84.25,0.69,28.44
426397,-0.16,0.29,-0.08,241.39,81.69,4.10,28.25
426407,-0.18,0.30,-0.15,243.71,84.50,10.12,28.34
426417,-0.18,0.34,-0.20,245.21,86.57,17.56,28.25
426427,-0.17,0.36,-0.27,243.53,82.18,24.05,28.20
426437,-0.14,0.36,-0.34,238.41,73.22,27.53,28.25
426447,-0.12,0.35,-0.33,230.79,62.64,28.21,28.25
426457,-0.09,0.35,-0.33,228.92,51.46,27.46,28.29
426467,-0.07,0.34,-0.35,232.57,47.20,26.26,28.20
426477,-0.06,0.34,-0.39,239.28,46.37,25.65,28.29
426487,-0.01,0.36,-0.52,250.13,56.96,24.15,28.25
426497,0.04,0.37,-0.63,249.52,73.73,18.81,28.25
426507,0.05,0.36,-0.67,243.50,87.63,11.76,28.20
426517,-0.01,0.37,-0.70,234.47,94.95,10.11,28.20
426527,-0.11,0.37,-0.72,223.06,90.47,13.24,28.25
426537,-0.15,0.42,-0.75,212.95,80.15,19.07,28.25
426547,-0.13,0.41,-0.80,207.76,68.18,23.13,28.29
426557,-0.08,0.42,-0.86,200.58,58.33,24.31,28.29
426567,-0.03,0.42,-0.91,190.65,46.10,22.35,28.29
426577,0.02,0.39,-0.96,183.71,37.65,16.54,28.25
426587,0.04,0.38,-1.00,174.21,35.34,11.24,28.25
426597,0.05,0.35,-1.01,164.84,33.67,4.21,28.25
426607,0.04,0.35,-1.03,154.36,37.38,4.05,28.29
426617,0.01,0.39,-1.05,145.37,37.43,2.06,28.29
426627,0.01,0.34,-1.09,136.43,42.60,1.37,28.25
426637,-0.03,0.41,-1.07,121.53,46.39,4.70,28.25
426647,-0.06,0.40,-1.04,108.83,40.24,11.23,28.29
426657,-0.06,0.37,-0.96,97.79,27.91,14.89,28.39
426667,-0.06,0.36,-0.95,91.27,8.76,12.58,28.25
426677,-0.05,0.36,-1.02,84.96,-9.95,11.24,28.34
426687,-0.05,0.42,-1.10,75.95,-23.28,9.81,28.25
426697,-0.11,0.46,-1.15,67.88,-32.66,10.18,28.29
426707,-0.19,0.50,-1.21,55.63,-41.97,9.63,28.20
426717,-0.24,0.51,-1.22,40.43,-57.29,9.47,28.25
426727,-0.24,0.52,-1.18,29.34,-78.36,5.56,28.34
426737,-0.24,0.57,-1.18,24.41,-96.72,-2.76,28.20
426747,-0.25,0.63,-1.23,27.76,-115.11,-13.11,28.29
426757,-0.29,0.73,-1.26,34.05,-132.68,-21.06,28.20
426767,-0.40,0.82,-1.28,50.15,-149.84,-27.45,28.25
426777,-0.50,0.84,-1.36,75.47,-166.73,-32.16,28.25
426787,-0.61,0.82,-1.50,115.63,-178.38,-26.92,28.25
426797,-0.66,0.80,-1.72,153.97,-165.05,-8.01,28.29
426807,-0.70,0.74,-1.90,166.18,-114.00,8.85,28.15
426817,-0.68,0.70,-2.00,155.47,-30.26,23.08,28.25
426827,-0.61,0.66,-2.00,120.58,56.28,48.02,28.25
426837,-0.47,0.60,-1.98,62.99,128.68,70.73,28.20
426847,-0.34,0.55,-1.74,6.67,167.92,83.12,28.20
426857,-0.18,0.46,-1.55,-37.09,158.18,88.92,28.25
426867,-0.06,0.45,-1.39,-72.69,119.11,94.41,28.15
426877,0.04,0.51,-1.27,-91.72,79.27,94.83,28.20
426887,0.10,0.40,-1.16,-90.32,50.88,98.82,28.29
426897,0.12,0.40,-1.09,-85.19,20.46,88.17,28.29
426907,0.17,0.43,-1.11,-82.59,-3.01,76.62,28.25
426917,0.20,0.47,-1.12,-88.76,-20.11,63.11,28.25
426927,0.20,0.52,-1.14,-102.51,-30.95,49.05,28.20
426937,0.15,0.57,-1.10,-110.44,-30.94,38.11,28.39
426947,0.07,0.63,-1.07,-113.18,-28.13,28.88,28.25
426957,-0.03,0.64,-1.09,-106.98,-27.61,21.88,28.34
426967,-0.10,0.68,-1.09,-96.76,-17.93,18.28,28.25
426977,-0.13,0.70,-1.11,-88.70,-0.57,19.78,28.20
426987,-0.16,0.72,-1.14,-87.31,14.88,24.18,28.29
426997,-0.13,0.74,-1.14,-93.69,28.85,26.85,28.25
427007,-0.09,0.75,-1.11,-100.68,40.51,26.83,28.25
427017,-0.06,0.75,-1.09,-109.05,46.25,23.89,28.39
427027,-0.06,0.75,-1.08,-116.85,42.15,20.33,28.29
427037,-0.05,0.75,-1.07,-122.75,29.99,15.15,28.25
427047,-0.06,0.76,-1.06,-127.31,17.20,11.43,28.25
427057,-0.08,0.78,-1.04,-130.03,8.10,8.57,28.25
427067,-0.07,0.78,-1.02,-132.18,9.89,7.44,28.29
427077,-0.03,0.77,-1.00,-133.31,19.79,5.25,28.29
427087,0.02,0.77,-0.96,-136.85,32.79,-0.66,28.15
427097,0.07,0.76,-0.94,-139.53,43.04,-10.27,28.25
427107,0.10,0.75,-0.92,-141.86,36.47,-23.66,28.29
427117,0.11,0.73,-0.91,-143.84,19.37,-38.31,28.20
427127,0.13,0.71,-0.92,-143.50,5.47,-50.90,28.20
427137,0.13,0.70,-0.92,-148.18,-8.93,-62.36,28.25
427147,0.08,0.70,-0.92,-158.66,-17.63,-69.41,28.25
427157,0.00,0.71,-0.91,-170.10,-26.20,-71.23,28.15
427167,-0.11,0.70,-0.94,-181.98,-28.44,-64.35,28.29
427177,-0.22,0.70,-0.91,-196.76,-23.44,-51.53,28.34
427187,-0.27,0.71,-0.84,-207.56,-13.22,-33.63,28.15
427197,-0.27,0.69,-0.80,-216.02,-3.30,-16.95,28.25
427207,-0.21,0.66,-0.74,-221.44,5.32,-3.47,28.20
427217,-0.10,0.63,-0.73,-223.59,15.17,2.38,28.29
427227,-0.03,0.60,-0.70,-223.85,24.89,1.57,28.25
427237,0.01,0.57,-0.66,-221.63,34.08,-2.62,28.25
427247,0.01,0.56,-0.59,-221.31,40.31,-10.74,28.25
427257,-0.01,0.57,-0.52,-222.85,42.81,-20.09,28.20
427267,-0.05,0.56,-0.45,-226.13,39.50,-30.73,28.20
427277,-0.10,0.54,-0.39,-233.01,32.35,-41.31,28.25
427287,-0.19,0.52,-0.30,-238.86,19.11,-45.73,28.25
427297,-0.23,0.51,-0.23,-243.95,6.60,-45.84,28.25
427307,-0.25,0.49,-0.13,-245.99,4.98,-42.56,28.29
427317,-0.34,0.50,-0.02,-247.92,-0.11,-35.43,28.20
427327,-0.34,0.49,0.08,-244.67,3.17,-27.05,28.25
427337,-0.33,0.45,0.16,-232.83,13.84,-18.63,28.25
427347,-0.30,0.44,0.22,-219.55,21.18,-13.33,28.25
427357,-0.20,0.44,0.31,-205.94,29.31,-12.18,28.20
427367,-0.13,0.44,0.38,-191.47,24.86,-20.53,28.29
427377,-0.12,0.43,0.43,-176.65,10.86,-32.05,28.25
427387,-0.13,0.42,0.44,-167.06,-14.77,-43.03,28.25
427397,-0.20,0.39,0.50,-154.08,-60.05,-51.62,28.29
427407,-0.24,0.40,0.51,-144.80,-106.77,-51.85,28.29
427417,-0.23,0.39,0.51,-131.48,-141.16,-48.22,28.25
427427,-0.16,0.42,0.47,-123.85,-144.44,-44.76,28.25
427437,-0.10,0.43,0.41,-118.32,-122.83,-41.09,28.25
427447,-0.04,0.45,0.39,-116.43,-86.23,-39.29,28.20
427457,-0.05,0.44,0.43,-113.93,-55.04,-39.79,28.20
427467,-0.03,0.41,0.47,-104.15,-30.18,-39.18,28.34
427477,-0.07,0.39,0.50,-95.77,-16.85,-40.03,28.25
427487,-0.08,0.39,0.49,-88.75,-10.69,-42.02,28.25
427497,-0.11,0.39,0.50,-85.55,-7.33,-42.76,28.20
427507,-0.15,0.40,0.49,-84.40,-4.08,-38.28,28.29
427517,-0.17,0.43,0.49,-88.69,-2.98,-34.74,28.25
427527,-0.18,0.46,0.49,-95.04,-2.66,-30.11,28.25
427537,-0.19,0.46,0.49,-102.44,-3.21,-24.63,28.25
427547,-0.17,0.44,0.50,-106.60,-5.41,-19.44,28.29
427557,-0.14,0.42,0.49,-108.82,-5.81,-16.25,28.29
427567,-0.12,0.40,0.51,-109.86,-4.27,-16.39,28.25
427577,-0.12,0.39,0.53,-113.43,-1.47,-17.58,28.25
427587,-0.15,0.39,0.59,-120.51,0.92,-17.25,28.29
427597,-0.19,0.39,0.68,-127.31,0.46,-15.66,28.20
427607,-0.22,0.40,0.73,-129.60,-1.79,-13.18,28.25
427617,-0.25,0.37,0.77,-126.95,-2.96,-6.77,28.25
427627,-0.26,0.35,0.78,-117.73,-6.53,-1.35,28.15
427637,-0.24,0.32,0.76,-103.98,-4.33,6.70,28.39
427647,-0.17,0.32,0.73,-90.31,-1.45,9.31,28.29
427657,-0.12,0.30,0.63,-83.40,8.17,10.58,28.25
427667,-0.09,0.24,0.56,-84.19,17.44,11.47,28.25
427677,-0.07,0.19,0.54,-89.56,24.18,12.69,28.20
427687,-0.05,0.16,0.60,-102.17,20.55,10.01,28.29
427697,-0.02,0.16,0.68,-117.50,3.35,1.03,28.29
427707,-0.08,0.15,0.80,-131.05,-28.40,-9.10,28.25
427717,-0.08,0.13,0.85,-138.94,-58.33,-14.85,28.25
427727,-0.10,0.11,0.92,-140.18,-76.62,-17.19,28.25
427737,-0.09,0.08,0.98,-135.29,-82.43,-16.55,28.39
427747,-0.07,0.05,1.01,-130.01,-71.30,-11.77,28.29
427757,-0.04,0.05,1.03,-125.73,-52.73,-9.08,28.25
427767,-0.04,0.03,1.05,-122.69,-31.18,-7.79,28.25
427777,-0.10,0.03,1.11,-120.21,-16.89,-6.21,28.29
427787,-0.16,0.06,1.17,-116.58,-15.78,-3.38,28.29
427797,-0.21,0.06,1.21,-109.98,-25.01,0.91,28.25
427807,-0.21,0.06,1.19,-102.11,-37.53,6.50,28.34
427817,-0.17,0.06,1.14,-94.39,-42.31,9.89,28.25
427827,-0.14,0.05,1.08,-89.76,-38.23,12.53,28.29
427837,-0.11,0.04,1.06,-88.01,-29.48,13.95,28.20
427847,-0.10,0.03,1.05,-87.27,-17.40,15.86,28.25
427857,-0.08,0.03,1.06,-88.90,-7.02,16.54,28.25
427867,-0.07,0.01,1.10,-87.55,-0.02,14.82,28.25
427877,-0.12,-0.01,1.14,-86.50,-5.43,11.98,28.20
427887,-0.14,-0.02,1.18,-83.73,-16.48,11.05,28.39
427897,-0.12,-0.04,1.19,-78.56,-22.97,10.58,28.25
427907,-0.09,-0.06,1.18,-74.42,-20.15,8.99,28.34
427917,-0.10,-0.07,1.21,-70.64,-14.79,6.40,28.25
427927,-0.13,-0.04,1.21,-67.07,-8.98,6.53,28.29
427937,-0.15,-0.05,1.22,-60.73,-3.17,8.78,28.29
427947,-0.12,-0.03,1.21,-52.89,5.54,11.31,28.25
427957,-0.11,-0.04,1.21,-47.24,9.83,11.47,28.25
427967,-0.16,-0.06,1.25,-42.05,-6.79,8.21,28.20
427977,-0.14,-0.07,1.22,-35.85,-15.05,7.79,28.20
427987,-0.14,-0.06,1.22,-28.31,-26.50,8.32,28.25
427997,-0.12,-0.06,1.20,-20.55,-32.95,8.76,28.34
428007,-0.12,-0.06,1.16,-18.33,-39.34,8.54,28.25
428017,-0.12,-0.05,1.13,-17.98,-46.03,9.36,28.29
428027,-0.11,-0.05,1.10,-17.03,-52.01,9.89,28.29
428037,-0.09,-0.06,1.08,-13.99,-52.86,10.85,28.25
428047,-0.05,-0.07,1.03,-11.61,-46.76,13.01,28.15
428057,-0.01,-0.07,0.99,-10.46,-36.53,13.60,28.29
428067,0.02,-0.05,0.96,-12.33,-24.67,13.44,28.29
428077,0.03,-0.04,0.93,-16.70,-13.92,12.86,28.29
428087,0.01,-0.05,0.90,-23.75,-8.85,12.15,28.34
428097,0.01,-0.06,0.90,-28.21,-7.72,10.11,28.25
428107,0.02,-0.07,0.88,-31.28,-7.25,8.56,28.15
428117,0.04,-0.07,0.85,-33.38,-2.99,7.24,28.29
428127,0.06,-0.07,0.86,-34.91,4.74,4.34,28.25
428137,0.06,-0.06,0.87,-38.34,11.01,0.82,28.25
428147,0.01,-0.06,0.90,-42.17,12.44,-2.11,28.25
428157,-0.02,-0.08,0.92,-42.78,10.60,-2.69,28.29
428167,-0.03,-0.09,0.93,-41.99,11.44,-2.56,28.20
428177,-0.03,-0.10,0.92,-41.01,14.18,-2.77,28.25
428187,-0.04,-0.11,0.93,-43.15,11.75,-3.15,28.34
428197,-0.06,-0.10,0.95,-44.69,5.69,-3.56,28.25
428207,-0.07,-0.10,0.95,-44.96,-3.24,-3.98,28.20
428217,-0.07,-0.11,0.93,-44.15,-8.60,-3.70,28.29
428227,-0.07,-0.12,0.92,-40.77,-7.63,-1.87,28.25
428237,-0.05,-0.14,0.91,-37.40,-0.07,0.70,28.34
428247,-0.03,-0.15,0.92,-35.91,11.73,2.75,28.39
428257,-0.02,-0.16,0.93,-35.78,22.24,4.47,28.20
428267,-0.04,-0.18,0.96,-36.75,25.44,5.11,28.29
428277,-0.07,-0.19,0.99,-35.88,21.95,4.27,28.25
428287,-0.06,-0.20,0.99,-33.87,16.70,3.71,28.25
428297,-0.07,-0.22,1.00,-30.34,9.84,2.99,28.25
428307,-0.07,-0.23,1.03,-24.47,1.69,0.67,28.20
428317,-0.06,-0.23,1.04,-17.08,-3.56,-0.60,28.25
428327,-0.07,-0.22,1.00,-11.15,-4.94,-0.76,28.15
428337,-0.06,-0.22,0.96,-5.43,0.16,0.12,28.25
428347,-0.06,-0.22,0.94,-2.88,6.06,0.50,28.29
428357,-0.07,-0.20,0.93,-3.31,8.24,1.36,28.29
428367,-0.09,-0.20,0.94,-6.39,4.63,1.84,28.34
428377,-0.09,-0.19,0.95,-8.37,-1.27,2.11,28.25
428387,-0.10,-0.20,0.96,-8.27,-7.35,2.41,28.39
428397,-0.10,-0.21,0.97,-5.68,-10.90,3.44,28.20
428407,-0.08,-0.21,0.99,-0.45,-11.98,3.99,28.20
428417,-0.07,-0.21,1.01,3.40,-9.09,4.66,28.25
428427,-0.08,-0.21,1.03,5.31,-6.94,5.04,28.25
428437,-0.08,-0.21,1.03,9.57,-5.12,5.92,28.29
428447,-0.10,-0.21,1.04,15.19,-1.88,7.99,28.29
428457,-0.09,-0.21,1.01,20.50,-0.02,9.87,28.25
428467,-0.07,-0.20,0.96,22.53,2.75,10.11,28.25
428477,-0.05,-0.19,0.94,19.58,1.67,7.89,28.25
428487,-0.05,-0.18,0.93,14.41,1.11,7.61,28.34
428497,-0.05,-0.18,0.94,8.95,-6.89,5.72,28.20
428507,-0.06,-0.18,0.95,5.86,-14.40,5.03,28.25
428517,-0.07,-0.18,0.96,4.25,-20.56,4.77,28.25
428527,-0.04,-0.19,0.96,6.62,-19.54,5.53,28.29
428537,0.08,-0.17,0.90,8.44,5.27,9.22,28.29
428547,-0.07,-0.20,0.99,2.60,-1.69,5.78,28.25
428557,-0.01,-0.16,0.97,-5.15,14.98,5.92,28.25
428567,-0.02,-0.20,0.98,0.51,10.75,4.25,28.25
428577,-0.02,-0.19,0.97,1.38,5.18,2.05,28.20
428587,-0.03,-0.19,0.95,4.84,-2.73,0.35,28.20
428597,-0.03,-0.19,0.95,3.15,-7.32,-1.34,28.25
428607,-0.03,-0.18,0.94,-0.11,-5.74,-0.85,28.25
428617,-0.05,-0.16,0.96,-0.68,-2.93,0.34,28.29
428627,-0.01,-0.20,0.93,-2.85,-0.90,0.94,28.20
428637,-0.08,-0.16,0.98,-7.38,1.63,2.40,28.20
428647,-0.05,-0.20,0.93,-5.48,-9.83,0.33,28.15
428657,-0.03,-0.20,0.95,0.79,-1.99,0.44,28.25
428667,-0.01,-0.20,0.91,3.98,4.19,-0.50,28.34
428677,-0.03,-0.20,0.91,2.02,7.47,-1.58,28.20
428687,-0.06,-0.21,1.01,1.44,-1.58,-5.44,28.25
428697,-0.01,-0.22,0.97,9.34,1.85,-3.79,28.25
428707,-0.02,-0.22,0.94,15.60,-12.37,-6.90,28.20
428717,-0.05,-0.21,0.92,16.40,-12.37,-7.64,28.20
428727,-0.05,-0.18,0.92,18.75,-10.27,-7.36,28.20
428737,-0.03,-0.18,0.87,17.64,-0.38,-4.50,28.25
428747,-0.05,-0.17,0.88,14.24,-1.08,-3.95,28.15
428757,-0.05,-0.17,0.87,10.75,-2.04,-3.51,28.29
428767,-0.04,-0.17,0.89,10.49,-3.23,-2.93,28.20
428777,-0.03,-0.17,0.87,9.95,-5.82,-4.37,28.34
428787,-0.03,-0.18,0.86,8.48,-5.57,-5.09,28.25
428797,-0.03,-0.17,0.88,6.60,-4.73,-5.25,28.25
428807,-0.02,-0.17,0.88,5.82,-3.44,-5.35,28.20
428817,-0.03,-0.17,0.90,5.57,-1.73,-5.30,28.20
428827,-0.03,-0.17,0.93,6.71,-1.90,-5.52,28.15
428837,-0.04,-0.17,0.92,8.34,-3.77,-4.66,28.25
428847,-0.03,-0.17,0.89,8.28,-5.99,-4.90,28.34
428857,-0.03,-0.18,0.87,7.66,-5.73,-5.22,28.20
428867,-0.03,-0.17,0.87,7.62,-4.23,-5.44,28.29
428877,-0.04,-0.17,0.89,6.52,-3.79,-4.73,28.25
428887,-0.04,-0.17,0.90,5.56,-6.18,-4.47,28.25
428897,-0.03,-0.17,0.89,5.75,-8.69,-4.50,28.20
428907,-0.03,-0.16,0.86,6.48,-7.00,-5.00,28.20
428917,-0.02,-0.17,0.86,7.76,-3.79,-5.65,28.25
428927,-0.02,-0.17,0.87,8.81,-2.27,-5.78,28.34
428937,-0.03,-0.16,0.87,9.05,-1.06,-5.71,28.29
428947,-0.01,-0.17,0.85,9.78,1.81,-6.57,28.20
428957,-0.01,-0.17,0.85,9.89,7.11,-7.76,28.34
428967,-0.03,-0.16,0.87,8.99,7.75,-9.03,28.25
428977,-0.04,-0.15,0.87,6.71,3.23,-9.77,28.34
428987,-0.05,-0.15,0.89,6.05,-3.63,-9.90,28.20
428997,-0.06,-0.15,0.87,7.08,-8.06,-9.03,28.29
429007,-0.06,-0.14,0.86,8.18,-7.88,-7.96,28.25
429017,-0.05,-0.14,0.86,7.64,-5.16,-7.17,28.25
429027,-0.04,-0.14,0.86,5.42,-2.11,-6.99,28.25
429037,-0.04,-0.14,0.88,3.27,0.85,-6.18,28.20
429047,-0.04,-0.14,0.89,2.60,3.10,-5.63,28.25
429057,-0.05,-0.14,0.90,3.35,4.91,-4.80,28.34
429067,-0.05,-0.14,0.90,4.28,4.54,-4.20,28.15
429077,-0.06,-0.14,0.90,3.84,1.79,-3.04,28.29
429087,-0.07,-0.14,0.95,4.64,-3.57,-2.39,28.29
429097,-0.06,-0.14,0.93,5.74,-8.88,-1.62,28.25
429107,-0.04,-0.15,0.90,6.27,-10.08,-0.83,28.25
429117,-0.03,-0.14,0.89,6.72,-8.37,-0.71,28.20
429127,-0.01,-0.13,0.87,5.85,-4.85,-0.47,28.29
429137,-0.01,-0.14,0.88,4.51,-2.95,-0.47,28.39
429147,-0.02,-0.14,0.87,2.60,-3.05,-0.80,28.25
429157,-0.02,-0.14,0.87,1.32,-3.61,-0.76,28.25
429167,-0.03,-0.15,0.90,1.41,-4.60,-0.40,28.29
429177,-0.03,-0.15,0.90,2.71,-5.98,0.89,28.20
429187,-0.01,-0.15,0.89,3.98,-5.71,1.56,28.34
429197,-0.00,-0.15,0.88,3.64,-4.07,1.54,28.25
429207,0.00,-0.16,0.88,3.01,-2.15,0.76,28.25
429217,0.01,-0.16,0.90,2.53,-1.91,0.43,28.29
429227,0.01,-0.16,0.92,2.49,-3.65,-0.49,28.20
429237,0.01,-0.16,0.91,4.02,-4.95,-0.82,28.25
429247,0.03,-0.16,0.89,5.82,-4.48,-2.29,28.34
429257,0.03,-0.16,0.88,6.21,-2.17,-3.67,28.20
429267,0.02,-0.16,0.88,5.86,-1.34,-4.66,28.29
429277,-0.01,-0.15,0.89,5.53,-4.60,-4.19,28.25
429287,-0.00,-0.14,0.87,5.61,-8.16,-4.08,28.25
429297,0.01,-0.15,0.85,5.62,-7.29,-3.97,28.25
429307,0.02,-0.15,0.83,4.60,-4.05,-4.83,28.29
429317,0.03,-0.14,0.84,2.31,-0.14,-5.52,28.20
429327,0.00,-0.15,0.86,0.18,1.21,-5.40,28.34
429337,-0.02,-0.15,0.89,-0.08,-0.97,-6.26,28.25
429347,-0.01,-0.14,0.87,1.08,-3.37,-5.24,28.29
429357,0.00,-0.15,0.86,1.12,-2.95,-5.70,28.20
429367,0.00,-0.14,0.85,1.13,-0.21,-5.09,28.20
429377,-0.00,-0.14,0.88,-0.21,1.07,-5.77,28.25
429387,-0.02,-0.14,0.91,-0.39,-1.64,-6.60,28.25
429397,-0.03,-0.14,0.92,0.37,-3.98,-6.26,28.34
429407,-0.04,-0.14,0.92,1.58,-3.56,-4.71,28.29
429417,-0.04,-0.14,0.92,1.99,-3.68,-3.63,28.25
429427,-0.03,-0.14,0.93,1.49,-3.36,-2.95,28.34
429437,-0.02,-0.14,0.92,0.88,-4.72,-2.77,28.29
429447,-0.02,-0.15,0.92,0.53,-6.49,-2.63,28.29
429457,-0.02,-0.15,0.93,0.66,-7.93,-2.54,28.20
429467,-0.01,-0.15,0.93,1.40,-8.79,-3.07,28.25
429477,-0.00,-0.15,0.93,2.15,-7.38,-3.66,28.15
429487,0.01,-0.16,0.93,2.78,-4.40,-3.27,28.20
429497,-0.00,-0.16,0.91,3.67,-1.66,-2.52,28.20
429507,-0.00,-0.15,0.92,4.42,-0.08,-1.91,28.25
429517,-0.02,-0.15,0.92,5.48,-1.47,-2.28,28.25
429527,-0.01,-0.16,0.91,5.73,-3.95,-2.34,28.29
429537,-0.00,-0.16,0.90,5.09,-6.10,-2.31,28.29
429547,0.00,-0.16,0.90,5.54,-5.85,-2.27,28.29
429557,0.01,-0.16,0.89,6.17,-3.42,-1.47,28.25
429567,0.02,-0.17,0.88,5.19,-0.30,-0.99,28.25
429577,0.02,-0.17,0.88,3.79,-0.21,-2.24,28.25
429587,0.04,-0.17,0.87,2.43,1.69,-3.12,28.20
429597,0.02,-0.17,0.87,2.33,0.94,-4.76,28.15
429607,0.01,-0.18,0.89,1.70,2.81,-5.90,28.15
429617,0.00,-0.17,0.89,1.08,2.21,-6.37,28.15
429627,-0.02,-0.16,0.90,-0.58,0.83,-6.28,28.29
429637,-0.03,-0.17,0.93,-0.05,-1.27,-5.48,28.29
429647,-0.03,-0.16,0.94,1.69,-1.70,-5.10,28.15
429657,-0.03,-0.16,0.93,3.02,-1.77,-4.47,28.25
429667,-0.03,-0.16,0.92,4.14,-1.40,-4.02,28.20
429677,-0.02,-0.16,0.93,6.12,-0.89,-4.42,28.20
429687,-0.04,-0.16,0.92,7.97,-2.47,-4.82,28.11
429697,-0.03,-0.15,0.90,8.21,-3.41,-3.75,28.34
429707,-0.04,-0.15,0.89,8.14,-5.81,-3.12,28.25
429717,-0.02,-0.14,0.86,7.98,-4.89,-2.69,28.20
429727,-0.02,-0.14,0.87,7.48,-1.05,-2.27,28.20
429737,-0.03,-0.14,0.86,7.62,1.28,-1.25,28.25
429747,-0.03,-0.13,0.86,5.69,0.55,0.24,28.25
429757,-0.05,-0.12,0.88,4.01,-2.82,1.11,28.25
429767,-0.05,-0.13,0.89,3.51,-5.63,2.58,28.39
429777,-0.04,-0.13,0.90,3.35,-5.43,4.24,28.29
429787,-0.02,-0.14,0.90,3.70,-3.47,5.46,28.25
429797,-0.01,-0.15,0.91,4.51,-3.04,5.82,28.25
429807,0.01,-0.15,0.91,5.83,-3.79,5.58,28.29
429817,0.02,-0.15,0.88,5.70,-5.37,5.41,28.29
429827,0.03,-0.16,0.88,5.71,-5.96,4.82,28.25
429837,0.05,-0.16,0.87,4.85,-5.05,3.85,28.15
429847,0.05,-0.16,0.88,3.34,-4.17,2.56,28.25
429857,0.06,-0.16,0.88,2.00,-3.19,1.16,28.20
429867,0.06,-0.17,0.88,1.88,-2.44,-0.33,28.20
429877,0.05,-0.17,0.89,2.89,-1.79,-1.23,28.34
429887,0.05,-0.17,0.89,4.65,0.79,-2.33,28.25
429897,0.04,-0.17,0.89,5.70,3.36,-3.18,28.20
429907,0.02,-0.16,0.87,5.09,3.50,-4.02,28.20
429917,0.01,-0.16,0.88,3.50,2.26,-4.02,28.25
429927,0.02,-0.15,0.90,2.86,0.93,-4.37,28.25
429937,0.01,-0.14,0.90,2.87,0.92,-5.28,28.25
429947,0.01,-0.14,0.89,2.92,1.98,-5.89,28.29
429957,0.00,-0.13,0.90,3.05,3.19,-5.82,28.29
429967,-0.01,-0.13,0.89,2.91,4.31,-5.85,28.25
429977,-0.02,-0.12,0.91,2.11,3.89,-5.83,28.25
429987,-0.03,-0.12,0.91,1.95,2.81,-5.19,28.20
429997,-0.04,-0.12,0.92,2.78,2.36,-3.60,28.29
430007,-0.05,-0.11,0.92,3.30,1.83,-2.11,28.20
430017,-0.05,-0.11,0.91,3.64,0.90,-0.59,28.25
430027,-0.04,-0.11,0.91,3.65,-1.28,0.25,28.25
430037,-0.02,-0.12,0.90,3.76,-1.39,1.40,28.20
430047,-0.03,-0.12,0.89,3.56,-2.11,2.05,28.29
430057,-0.00,-0.13,0.88,3.60,-1.10,2.80,28.15
430067,0.01,-0.13,0.88,2.87,-0.48,2.91,28.25
430077,0.00,-0.13,0.89,2.14,-1.89,2.89,28.25
430087,0.02,-0.13,0.89,1.37,-5.00,2.87,28.29
430097,0.02,-0.14,0.89,1.32,-5.92,3.27,28.29
430107,0.03,-0.15,0.90,2.21,-4.56,3.53,28.25
430117,0.05,-0.15,0.91,2.38,-3.73,3.50,28.25
430127,0.05,-0.15,0.91,2.07,-3.60,3.39,28.25
430137,0.05,-0.16,0.91,2.07,-4.20,3.06,28.29
430147,0.06,-0.17,0.90,2.44,-4.51,2.25,28.25
430157,0.07,-0.17,0.91,3.82,-2.69,1.02,28.25
430167,0.07,-0.17,0.90,4.96,-0.83,0.12,28.25
430177,0.08,-0.17,0.89,5.29,0.70,-1.64,28.29
430187,0.07,-0.17,0.87,4.71,1.21,-3.72,28.20
430197,0.06,-0.16,0.88,4.37,1.05,-5.34,28.25
430207,0.03,-0.16,0.91,3.98,-0.37,-6.11,28.25
430217,0.01,-0.15,0.90,4.51,-2.05,-6.69,28.20
430227,0.02,-0.14,0.88,5.21,0.20,-6.76,28.29
430237,0.02,-0.13,0.88,4.40,2.52,-7.19,28.20
430247,0.01,-0.13,0.89,3.05,2.66,-7.55,28.25
430257,-0.01,-0.12,0.92,2.27,1.49,-6.40,28.25
430267,-0.03,-0.12,0.91,3.32,-0.49,-5.26,28.29
430277,-0.03,-0.12,0.89,4.71,-0.82,-4.23,28.29
430287,-0.03,-0.11,0.89,4.79,1.10,-3.66,28.25
430297,-0.03,-0.11,0.89,3.35,1.60,-2.88,28.25
430307,-0.03,-0.11,0.91,2.16,-0.34,-2.67,28.25
430317,-0.02,-0.12,0.90,2.39,-2.44,-1.95,28.20
430327,-0.02,-0.12,0.90,4.10,-2.67,-1.31,28.20
430337,-0.01,-0.13,0.90,5.40,-1.50,-1.04,28.25
430347,-0.02,-0.12,0.88,5.33,0.42,-0.21,28.15
430357,-0.01,-0.11,0.90,3.64,0.69,0.47,28.29
430367,-0.02,-0.12,0.90,1.93,-1.48,0.89,28.20
430377,-0.00,-0.13,0.90,1.27,-3.34,1.59,28.29
430387,0.00,-0.13,0.90,2.90,-4.29,2.79,28.25
430397,0.02,-0.14,0.89,2.70,-4.14,2.59,28.25
430407,0.04,-0.15,0.89,3.74,-3.12,2.50,28.11
430417,0.05,-0.15,0.89,3.11,-2.27,1.82,28.20
430427,0.05,-0.16,0.90,3.86,-0.08,1.68,28.34
430437,0.06,-0.16,0.90,4.19,0.44,0.64,28.34
430447,0.06,-0.16,0.89,4.25,-0.32,-0.70,28.25
430457,0.06,-0.16,0.89,4.24,-1.38,-1.96,28.20
430467,0.06,-0.16,0.90,4.19,-2.40,-3.56,28.20
430477,0.06,-0.16,0.90,4.39,-2.25,-4.82,28.25
430487,0.04,-0.16,0.89,4.12,-0.75,-5.21,28.25
430497,0.03,-0.15,0.90,4.11,0.35,-5.77,28.25
430507,0.02,-0.15,0.90,4.15,0.34,-6.60,28.29
430517,0.01,-0.15,0.90,4.01,-0.78,-6.67,28.29
430527,0.01,-0.14,0.89,3.98,-1.94,-6.81,28.34
430537,0.00,-0.13,0.89,4.36,-1.89,-6.89,28.25
430547,-0.00,-0.14,0.90,4.84,-1.08,-7.18,28.29
430557,-0.00,-0.13,0.90,4.94,-0.67,-7.12,28.29
