Timestamp,Acce_X,Acce_Y,Acce_Z,Gyro_X,Gyro_Y,Gyro_Z,Temp
10257,-0.03,-0.28,1.03,-17.63,-0.65,2.79,32.06
10267,-0.00,-0.28,0.98,-18.93,0.57,1.42,32.06
10277,0.00,-0.28,1.01,-18.53,2.02,2.33,32.06
10287,0.00,-0.29,1.01,-24.01,2.38,2.56,32.15
10297,-0.02,-0.31,1.02,-25.01,-1.33,4.26,32.06
10307,-0.01,-0.31,1.05,-26.44,0.55,4.28,31.97
10317,-0.01,-0.32,1.07,-25.92,0.37,3.74,32.01
10327,-0.00,-0.32,1.10,-26.38,2.31,2.52,32.11
10337,-0.03,-0.35,1.15,-24.89,-6.85,1.84,32.11
10347,-0.05,-0.36,1.18,-22.31,-14.34,-1.52,32.01
10357,-0.04,-0.42,1.31,-16.24,-25.86,-5.15,32.11
10367,-0.02,-0.47,1.39,-7.73,-37.82,-7.02,32.01
10377,0.02,-0.47,1.45,-2.05,-46.77,-9.11,32.11
10387,0.07,-0.42,1.61,1.95,-53.20,-12.04,32.11
10397,0.08,-0.32,1.65,-1.15,-58.69,-14.48,32.06
10407,0.03,-0.27,1.78,-0.56,-50.02,-13.67,31.97
10417,0.03,-0.20,1.91,7.11,-41.79,-8.45,32.15
10427,0.01,-0.19,1.97,23.11,-53.24,3.60,31.97
10437,-0.04,-0.17,2.00,33.08,-55.65,7.28,31.97
10447,0.07,-0.16,2.00,42.31,-56.56,10.40,32.06
10457,0.12,-0.25,2.00,49.49,-51.88,10.83,32.06
10467,0.21,-0.30,1.93,65.65,-45.82,10.66,32.06
10477,0.29,-0.32,1.75,71.25,-31.10,6.85,32.01
10487,0.31,-0.32,1.60,73.63,-12.66,0.95,32.01
10497,0.27,-0.29,1.50,71.22,2.97,-4.03,32.11
10507,0.23,-0.27,1.41,65.46,14.73,-7.37,32.01
10517,0.16,-0.26,1.34,57.22,25.89,-7.31,32.11
10527,0.08,-0.27,1.32,52.21,31.62,-4.52,32.01
10537,0.04,-0.31,1.31,48.95,34.24,-0.56,32.01
10547,0.01,-0.35,1.31,41.02,38.95,1.21,32.01
10557,-0.04,-0.42,1.38,37.04,37.64,4.14,32.06
10567,-0.08,-0.51,1.50,46.60,33.89,6.52,32.06
10577,-0.06,-0.56,1.54,61.86,25.92,10.56,31.97
10587,-0.01,-0.55,1.53,75.95,18.64,13.32,32.06
10597,0.03,-0.55,1.46,86.09,10.61,14.11,31.97
10607,0.08,-0.52,1.38,92.43,1.17,13.20,32.06
10617,0.15,-0.49,1.28,97.79,-3.87,10.87,32.01
10627,0.19,-0.47,1.20,101.02,-5.30,6.34,32.06
10637,0.24,-0.44,1.15,100.02,3.02,1.60,32.01
10647,0.26,-0.44,1.13,99.78,17.78,-3.50,32.11
10657,0.23,-0.43,1.16,102.76,33.18,-8.34,32.11
10667,0.17,-0.43,1.16,106.77,44.73,-10.54,32.01
10677,0.11,-0.40,1.18,109.56,51.70,-10.67,32.11
10687,0.06,-0.38,1.19,113.91,51.39,-10.05,31.92
10697,0.01,-0.35,1.19,118.19,48.13,-8.89,32.01
10707,-0.01,-0.32,1.17,124.10,41.82,-7.12,31.97
10717,-0.02,-0.31,1.14,128.67,33.39,-5.82,32.06
10727,0.02,-0.28,1.09,129.06,29.16,-4.95,32.06
10737,0.05,-0.22,1.01,126.19,32.73,-4.67,31.97
10747,0.03,-0.21,1.01,124.06,39.15,-4.55,31.97
10757,0.02,-0.25,1.02,124.54,44.43,-3.58,32.06
10767,0.06,-0.26,1.02,129.33,53.45,-5.03,31.97
10777,-0.01,-0.25,0.98,136.82,50.21,-2.43,32.06
10787,-0.06,-0.21,0.92,145.05,49.50,2.23,32.01
10797,-0.05,-0.15,0.85,148.98,49.22,5.98,32.01
10807,-0.05,-0.12,0.79,153.68,46.03,7.92,32.01
10817,-0.06,-0.08,0.76,154.92,36.26,8.40,31.92
10827,-0.05,-0.02,0.73,154.90,21.63,3.39,32.01
10837,0.00,0.04,0.64,146.48,11.24,-3.63,32.01
10847,0.06,0.10,0.59,134.22,12.53,-8.28,32.01
10857,0.07,0.09,0.61,126.44,31.53,-11.80,32.01
10867,0.01,0.02,0.76,127.56,46.71,-10.08,31.97
10877,-0.03,-0.02,0.83,133.72,56.97,-7.85,31.97
10887,-0.05,0.01,0.84,140.84,60.95,-7.81,31.97
10897,-0.07,0.10,0.79,145.22,58.78,-11.35,31.97
10907,-0.16,0.17,0.74,144.18,51.39,-12.88,31.97
10917,-0.25,0.21,0.73,141.43,34.31,-12.87,32.01
10927,-0.32,0.26,0.72,135.11,13.70,-11.74,32.06
10937,-0.33,0.28,0.72,131.24,-9.21,-9.05,32.01
10947,-0.29,0.30,0.67,129.98,-24.50,-4.37,32.01
10957,-0.21,0.32,0.60,128.67,-29.65,0.53,32.01
10967,-0.13,0.32,0.56,126.50,-25.14,4.00,31.92
10977,-0.05,0.30,0.52,126.00,-13.02,4.09,32.01
10987,-0.03,0.27,0.55,130.15,0.66,1.86,32.01
10997,-0.06,0.27,0.60,135.43,3.63,-3.80,31.92
11007,-0.14,0.30,0.60,140.53,-4.72,-6.50,32.11
11017,-0.15,0.37,0.51,141.79,-15.44,-7.92,31.97
11027,-0.13,0.43,0.45,137.76,-23.91,-8.54,31.97
11037,-0.13,0.49,0.38,131.12,-24.53,-9.02,31.97
11047,-0.20,0.50,0.39,124.87,-24.84,-8.41,31.97
11057,-0.20,0.50,0.37,120.92,-25.69,-3.79,31.97
11067,-0.20,0.51,0.37,123.18,-24.37,4.45,32.06
11077,-0.18,0.55,0.31,124.46,-27.70,11.50,31.97
11087,-0.14,0.57,0.29,119.47,-33.28,13.66,32.01
11097,-0.11,0.56,0.30,113.34,-49.31,11.78,32.01
11107,-0.06,0.53,0.30,103.25,-61.09,8.98,32.01
11117,-0.01,0.52,0.30,100.34,-68.41,8.48,31.92
11127,0.08,0.52,0.28,100.56,-61.73,9.58,31.92
11137,0.15,0.52,0.23,103.54,-47.50,10.27,32.01
11147,0.26,0.57,0.12,104.61,-22.95,9.05,32.01
11157,0.27,0.58,0.06,105.50,-3.90,7.41,32.01
11167,0.13,0.54,0.04,102.95,2.70,12.06,32.01
11177,-0.04,0.43,0.12,92.65,-3.90,29.44,31.92
11187,-0.14,0.26,0.23,76.95,-16.39,58.37,31.87
11197,-0.08,0.10,0.46,57.89,-15.81,84.13,31.97
11207,-0.03,-0.01,0.66,64.21,-60.50,97.49,32.06
11217,0.23,-0.03,0.57,85.34,-86.02,91.16,31.97
11227,0.49,0.06,0.28,106.31,-96.43,68.73,32.06
11237,0.79,0.17,-0.05,99.86,-71.83,26.30,31.97
11247,0.97,0.25,-0.15,75.60,-36.66,-28.69,32.06
11257,0.81,0.28,0.02,37.85,0.13,-90.21,32.01
11267,0.51,0.37,0.20,21.77,16.25,-129.07,32.01
11277,0.19,0.52,0.19,25.43,33.40,-142.34,31.92
11287,-0.11,0.70,0.13,28.27,47.55,-138.30,31.92
11297,-0.29,0.81,0.13,24.85,53.04,-124.33,31.92
11307,-0.38,0.88,0.11,16.79,46.60,-107.71,32.01
11317,-0.48,0.86,0.22,10.12,25.01,-92.04,31.92
11327,-0.55,0.81,0.40,14.18,-11.96,-79.57,32.01
11337,-0.54,0.75,0.47,24.89,-53.63,-69.60,31.97
11347,-0.48,0.75,0.47,31.34,-71.11,-63.83,32.06
11357,-0.40,0.78,0.38,36.90,-71.66,-59.90,31.97
11367,-0.30,0.86,0.32,39.20,-52.53,-56.64,31.87
11377,-0.24,0.91,0.30,41.18,-32.44,-57.40,31.97
11387,-0.29,0.94,0.31,43.16,-16.16,-60.34,31.92
11397,-0.32,0.99,0.29,52.91,-2.76,-63.70,31.87
11407,-0.44,1.04,0.27,59.40,6.21,-65.04,31.97
11417,-0.55,1.06,0.24,64.58,3.21,-64.69,32.01
11427,-0.67,1.08,0.19,69.59,-3.95,-59.85,31.92
11437,-0.75,1.12,0.14,75.15,-17.04,-49.24,32.01
11447,-0.80,1.12,0.10,82.24,-40.50,-36.06,32.01
11457,-0.78,1.14,0.01,87.69,-57.73,-22.63,32.01
11467,-0.67,1.18,-0.16,89.98,-70.44,-9.29,31.92
11477,-0.52,1.20,-0.31,83.89,-70.06,1.08,32.01
11487,-0.39,1.26,-0.46,81.92,-64.07,10.34,31.97
11497,-0.26,1.31,-0.61,73.23,-49.79,16.01,31.97
11507,-0.23,1.23,-0.59,52.67,-50.69,15.54,31.97
11517,-0.36,1.13,-0.45,30.24,-68.53,9.04,31.87
11527,-0.49,1.17,-0.27,13.18,-95.07,-6.11,31.97
11537,-0.60,1.20,-0.14,3.89,-90.41,-23.39,31.97
11547,-0.76,1.32,-0.20,8.05,-98.97,-35.17,31.97
11557,-0.90,1.43,-0.29,18.07,-99.37,-29.00,32.01
11567,-0.92,1.60,-0.42,27.85,-77.85,-6.63,32.11
11577,-0.87,1.59,-0.60,39.02,-54.93,22.58,31.92
11587,-0.74,1.52,-0.58,34.49,-28.45,47.32,31.92
11597,-0.56,1.41,-0.52,19.47,-25.40,64.65,31.92
11607,-0.39,1.22,-0.37,-1.91,-38.42,70.90,31.92
11617,-0.22,1.05,-0.21,-23.25,-54.30,65.15,32.01
11627,-0.07,0.90,-0.06,-43.16,-67.13,51.74,31.92
11637,0.04,0.77,0.12,-56.51,-72.92,35.89,31.87
11647,0.12,0.67,0.35,-50.80,-77.95,18.88,31.97
11657,0.19,0.64,0.39,-27.76,-66.15,2.63,31.97
11667,0.20,0.68,0.29,-2.62,-33.95,-7.89,32.06
11677,0.18,0.73,0.27,15.70,-2.97,-13.84,31.97
11687,0.18,0.83,0.21,28.02,17.07,-19.82,31.92
11697,0.15,0.90,0.09,29.47,21.87,-28.01,31.87
11707,0.11,0.93,0.01,17.89,16.87,-40.95,32.06
11717,0.04,0.94,-0.03,2.65,4.27,-56.98,31.92
11727,-0.07,0.95,-0.07,-13.55,-0.27,-69.52,31.92
11737,-0.19,0.99,-0.08,-26.19,2.24,-73.99,31.92
11747,-0.29,1.00,-0.04,-33.02,9.58,-72.16,31.92
11757,-0.40,1.00,0.04,-30.59,12.15,-66.16,31.92
11767,-0.46,0.99,0.09,-18.98,12.02,-57.63,32.01
11777,-0.43,1.01,0.05,-6.57,14.01,-50.98,31.92
11787,-0.43,1.02,0.02,4.83,13.26,-47.46,32.06
11797,-0.46,1.01,-0.01,5.60,16.17,-45.37,32.06
11807,-0.52,1.02,0.05,1.75,11.64,-41.64,31.87
11817,-0.53,1.01,0.07,0.33,3.09,-35.44,32.06
11827,-0.52,0.98,0.07,-4.56,-2.59,-29.24,31.97
11837,-0.50,0.96,0.05,-11.47,-4.16,-21.03,31.97
11847,-0.43,0.96,0.03,-15.98,3.30,-14.89,31.97
11857,-0.43,0.98,0.05,-15.07,2.45,-5.74,32.01
11867,-0.42,1.00,0.00,-16.65,6.72,-0.68,31.92
11877,-0.43,1.01,-0.02,-22.01,8.80,2.21,32.01
11887,-0.45,1.01,-0.06,-29.05,10.69,6.02,31.82
11897,-0.47,0.99,-0.06,-38.81,10.11,9.03,31.92
11907,-0.48,0.95,0.02,-43.28,2.82,12.60,32.01
11917,-0.47,0.90,0.09,-41.80,-7.98,16.50,32.11
11927,-0.41,0.86,0.15,-38.31,-13.42,18.80,32.01
11937,-0.33,0.84,0.18,-34.27,-15.88,16.58,31.92
11947,-0.27,0.83,0.22,-30.09,-16.34,12.05,31.87
11957,-0.25,0.82,0.23,-25.47,-13.36,8.48,31.97
11967,-0.24,0.83,0.25,-18.11,-6.79,6.05,31.97
11977,-0.22,0.84,0.25,-9.77,0.08,2.94,31.97
11987,-0.24,0.88,0.23,-7.85,4.23,0.40,31.97
11997,-0.26,0.91,0.24,-8.68,2.90,-2.41,31.97
12007,-0.31,0.93,0.24,-11.14,-0.05,-3.84,31.97
12017,-0.34,0.94,0.26,-15.50,-4.81,-3.82,31.92
12027,-0.35,0.96,0.25,-17.64,-8.40,-2.47,31.92
12037,-0.34,0.97,0.24,-16.37,-12.67,-0.56,32.01
12047,-0.32,0.99,0.22,-10.58,-12.92,0.58,31.92
12057,-0.29,1.00,0.20,-2.53,-9.34,1.26,32.01
12067,-0.29,1.02,0.17,2.24,-2.63,0.52,31.92
12077,-0.34,1.05,0.17,3.34,-0.94,1.27,31.92
12087,-0.39,1.08,0.17,2.70,0.78,4.54,32.01
12097,-0.43,1.11,0.17,2.52,0.56,8.97,31.97
12107,-0.45,1.14,0.19,3.42,-3.34,15.15,32.06
12117,-0.42,1.13,0.16,4.02,-8.58,19.06,31.97
12127,-0.41,1.13,0.15,1.00,-8.76,21.25,31.87
12137,-0.38,1.13,0.13,-0.81,-7.02,22.63,31.97
12147,-0.35,1.13,0.13,-3.18,-1.95,21.53,31.97
12157,-0.34,1.14,0.15,-1.45,3.58,18.43,31.92
12167,-0.40,1.12,0.13,5.46,3.91,14.73,32.06
12177,-0.48,1.17,0.07,10.57,5.76,14.26,31.92
12187,-0.56,1.23,-0.02,14.12,10.12,17.36,32.01
12197,-0.63,1.29,-0.13,14.37,17.27,23.23,32.01
12207,-0.67,1.32,-0.19,11.49,21.54,31.41,32.01
12217,-0.67,1.34,-0.24,5.15,20.85,39.03,32.01
12227,-0.65,1.34,-0.26,-6.35,10.58,42.89,31.92
12237,-0.61,1.30,-0.26,-23.17,-6.02,42.61,32.01
12247,-0.58,1.25,-0.25,-41.88,-25.34,38.84,31.92
12257,-0.55,1.20,-0.25,-65.07,-44.37,32.48,32.06
12267,-0.56,1.15,-0.19,-93.61,-69.04,22.98,31.97
12277,-0.56,1.07,-0.09,-116.26,-97.69,15.79,32.06
12287,-0.56,1.03,-0.04,-131.22,-125.84,10.95,31.97
12297,-0.56,1.02,-0.04,-140.80,-145.65,4.83,32.06
12307,-0.50,1.02,-0.08,-142.85,-151.14,2.73,31.97
12317,-0.54,1.07,-0.12,-136.85,-143.90,13.78,31.87
12327,-0.57,1.09,-0.09,-123.53,-120.39,39.44,32.01
12337,-0.52,1.02,-0.04,-100.15,-92.29,72.50,31.97
12347,-0.40,0.95,-0.03,-77.75,-55.43,100.29,32.01
12357,-0.24,0.88,-0.02,-67.73,-22.26,114.56,31.92
12367,-0.13,0.82,0.01,-63.87,-3.29,116.12,32.01
12377,-0.12,0.77,0.07,-69.92,-1.19,110.75,32.11
12387,-0.12,0.73,0.12,-78.72,-5.17,101.26,32.01
12397,-0.10,0.70,0.18,-84.38,-19.76,94.24,32.11
12407,-0.05,0.70,0.18,-89.78,-34.54,86.92,31.92
12417,0.00,0.70,0.16,-96.42,-42.69,77.48,31.92
12427,0.06,0.72,0.14,-101.68,-40.38,72.38,31.97
12437,0.07,0.71,0.11,-107.27,-28.71,73.73,31.87
12447,0.06,0.65,0.19,-109.66,-10.71,82.06,31.97
12457,0.08,0.58,0.31,-103.08,10.92,91.14,31.97
12467,0.11,0.50,0.45,-86.05,27.23,97.49,31.97
12477,0.13,0.45,0.57,-69.03,39.83,96.98,31.97
12487,0.17,0.43,0.60,-53.35,49.11,93.54,31.97
12497,0.22,0.46,0.53,-49.18,63.37,86.99,32.01
12507,0.22,0.49,0.50,-55.34,77.02,78.37,31.97
12517,0.20,0.53,0.51,-64.69,84.04,71.17,32.11
12527,0.15,0.54,0.56,-70.24,85.19,64.00,32.01
12537,0.08,0.55,0.58,-70.55,87.74,58.56,32.01
12547,-0.00,0.57,0.59,-74.28,85.69,55.29,32.01
12557,-0.07,0.58,0.60,-80.56,80.79,54.62,31.92
12567,-0.12,0.59,0.60,-85.45,73.92,55.88,32.01
12577,-0.12,0.59,0.60,-84.82,65.14,58.36,32.01
12587,-0.10,0.57,0.59,-84.90,58.46,61.28,32.01
12597,-0.08,0.52,0.61,-86.74,49.69,63.47,32.06
12607,-0.05,0.47,0.65,-85.30,46.46,64.76,32.06
12617,-0.01,0.43,0.67,-84.13,48.70,64.15,32.06
12627,0.02,0.42,0.68,-82.95,54.08,62.42,32.06
12637,0.00,0.39,0.69,-84.14,61.92,61.31,31.87
12647,-0.07,0.37,0.74,-84.42,67.90,64.13,31.97
12657,-0.11,0.38,0.77,-78.27,74.02,67.60,32.06
12667,-0.09,0.38,0.74,-73.51,74.57,68.01,31.92
12677,-0.03,0.39,0.68,-78.27,70.13,62.95,31.97
12687,-0.01,0.39,0.65,-85.71,58.83,56.44,32.01
12697,-0.00,0.38,0.63,-95.92,50.13,51.76,32.01
12707,0.02,0.36,0.63,-106.13,47.10,50.33,32.01
12717,0.05,0.30,0.67,-110.02,55.44,48.96,32.01
12727,0.00,0.24,0.78,-112.00,63.97,51.74,32.01
12737,-0.05,0.22,0.86,-111.18,74.47,56.98,32.01
12747,-0.04,0.16,0.94,-109.03,78.05,59.44,32.01
12757,0.00,0.08,1.00,-105.15,72.84,56.87,32.01
12767,0.06,0.05,1.03,-99.95,57.53,50.09,31.97
12777,0.11,0.03,1.00,-97.53,44.21,40.05,31.97
12787,0.11,0.05,0.95,-96.83,34.02,32.35,31.97
12797,0.09,0.08,0.91,-97.89,24.78,29.56,31.97
12807,0.08,0.12,0.90,-98.19,18.98,30.13,32.06
12817,0.10,0.10,0.92,-95.59,2.98,32.24,32.06
12827,0.14,0.12,0.88,-91.26,-13.08,32.24,31.97
12837,0.21,0.15,0.80,-86.21,-22.65,33.45,32.01
12847,0.31,0.16,0.68,-84.92,-14.36,37.37,31.92
12857,0.40,0.15,0.62,-85.51,6.10,38.09,32.01
12867,0.47,0.12,0.64,-87.26,33.72,31.56,32.01
12877,0.45,0.11,0.69,-90.64,59.21,20.75,32.01
12887,0.37,0.11,0.74,-94.11,74.53,9.87,31.92
12897,0.25,0.11,0.81,-99.79,81.93,1.69,32.01
12907,0.11,0.12,0.90,-103.30,78.74,-3.17,32.01
12917,-0.03,0.15,0.98,-102.57,69.62,-1.92,31.92
12927,-0.13,0.12,1.07,-99.36,51.18,2.34,31.97
12937,-0.17,0.10,1.13,-93.24,31.64,7.56,32.06
12947,-0.18,0.09,1.16,-86.95,15.18,12.88,32.06
12957,-0.15,0.07,1.19,-79.69,1.27,18.27,31.97
12967,-0.07,0.04,1.16,-73.29,-7.31,20.26,31.97
12977,-0.01,0.01,1.13,-67.21,-9.95,22.07,31.97
12987,0.04,0.03,1.10,-60.38,-6.45,23.76,31.97
12997,0.10,0.08,1.02,-59.86,1.67,23.40,31.97
13007,0.10,0.10,0.99,-64.21,10.24,20.36,32.01
13017,0.08,0.10,1.02,-70.60,14.56,16.53,31.92
13027,0.03,0.08,1.11,-75.78,9.27,13.59,32.01
13037,-0.03,0.06,1.17,-78.29,-0.36,13.34,32.01
13047,-0.07,0.04,1.24,-73.17,-15.05,16.34,32.01
13057,-0.03,0.03,1.21,-65.73,-24.69,21.65,32.01
13067,0.03,0.02,1.14,-63.68,-28.27,23.88,32.01
13077,0.10,-0.01,1.13,-60.78,-27.61,25.04,31.97
13087,0.17,-0.02,1.09,-58.07,-20.84,23.15,31.87
13097,0.21,-0.01,1.03,-57.37,-9.59,20.92,31.97
13107,0.24,0.01,0.99,-59.19,4.96,18.89,32.06
13117,0.22,-0.02,0.98,-65.04,16.23,16.02,31.97
13127,0.16,-0.07,0.98,-72.49,22.56,12.73,31.87
13137,0.11,-0.10,1.05,-76.98,20.08,10.52,31.92
13147,0.08,-0.10,1.13,-77.60,13.00,7.73,31.97
13157,0.05,-0.11,1.20,-75.60,1.74,5.28,32.01
13167,0.04,-0.10,1.23,-70.03,-4.89,7.81,31.92
13177,0.05,-0.12,1.25,-65.94,-5.56,10.18,32.01
13187,0.10,-0.15,1.26,-60.66,-5.79,10.12,32.01
13197,0.15,-0.20,1.26,-56.72,-7.64,4.89,32.01
13207,0.18,-0.22,1.25,-51.79,-10.03,-2.24,32.01
13217,0.17,-0.23,1.23,-45.37,-10.12,-7.84,31.92
13227,0.17,-0.22,1.19,-34.90,-6.21,-12.13,32.01
13237,0.18,-0.21,1.13,-28.24,0.33,-18.30,32.06
13247,0.17,-0.24,1.08,-27.46,2.97,-26.14,31.87
13257,0.13,-0.25,1.05,-31.47,1.91,-34.84,32.06
13267,0.07,-0.24,1.04,-34.21,-4.86,-41.63,31.97
13277,0.05,-0.23,0.99,-32.35,-11.55,-47.24,31.97
13287,0.03,-0.20,0.94,-31.91,-14.12,-50.47,32.06
13297,-0.02,-0.12,0.90,-32.76,-9.11,-46.78,31.97
13307,-0.07,-0.04,0.86,-33.56,-0.80,-37.34,31.92
13317,-0.10,-0.01,0.85,-33.09,5.79,-23.08,32.01
13327,-0.12,-0.03,0.87,-37.82,8.05,-10.21,32.01
13337,-0.12,-0.07,0.95,-45.01,5.91,-1.77,32.01
13347,-0.10,-0.12,1.03,-47.85,-4.72,4.71,31.92
13357,-0.08,-0.15,1.05,-50.84,-11.99,11.55,32.01
13367,-0.00,-0.17,1.07,-52.57,-9.54,16.19,32.01
13377,0.05,-0.21,1.10,-54.51,-2.23,18.50,32.01
13387,0.07,-0.23,1.16,-54.85,6.77,21.35,32.01
13397,0.07,-0.24,1.21,-54.28,15.50,24.40,31.97
13407,0.07,-0.27,1.26,-51.93,17.78,25.18,32.06
13417,0.10,-0.29,1.29,-45.89,13.13,24.09,31.97
13427,0.14,-0.33,1.27,-39.82,8.37,21.53,31.97
13437,0.20,-0.32,1.24,-33.73,8.23,20.15,32.06
13447,0.24,-0.35,1.24,-28.82,16.50,15.47,32.06
13457,0.24,-0.38,1.27,-22.83,26.53,9.66,31.97
13467,0.14,-0.39,1.28,-19.97,34.11,5.37,32.06
13477,0.04,-0.37,1.26,-18.72,32.95,4.68,32.01
13487,-0.06,-0.35,1.22,-19.87,21.94,3.02,32.01
13497,-0.13,-0.32,1.15,-18.37,2.74,3.94,32.01
13507,-0.13,-0.28,1.04,-17.07,-10.44,7.63,32.11
13517,-0.03,-0.25,0.95,-19.96,-10.23,11.96,32.01
13527,0.09,-0.25,0.97,-28.46,-2.85,14.40,32.01
13537,0.23,-0.34,1.10,-37.21,-0.41,7.56,32.01
13547,0.33,-0.48,1.28,-46.70,-8.32,-9.86,31.97
13557,0.30,-0.55,1.41,-48.40,-26.10,-26.96,31.97
13567,0.22,-0.52,1.43,-46.58,-29.40,-39.08,31.97
13577,0.08,-0.47,1.43,-34.17,-31.11,-42.21,31.97
13587,-0.04,-0.42,1.34,-17.90,-39.63,-40.37,31.97
13597,-0.03,-0.34,1.18,2.34,-35.98,-34.16,31.97
13607,0.01,-0.23,0.99,14.27,-41.98,-23.40,32.01
13617,0.11,-0.18,0.76,8.58,-25.34,-20.46,32.06
13627,0.10,-0.17,0.67,-2.08,-4.05,-17.56,32.11
13637,0.07,-0.18,0.69,-10.71,16.12,-13.08,31.92
13647,0.04,-0.18,0.72,-16.85,23.57,-10.39,32.01
13657,0.02,-0.18,0.76,-22.99,25.73,-9.40,32.01
13667,-0.03,-0.23,0.86,-29.69,24.56,-7.09,31.92
13677,-0.05,-0.26,0.98,-34.66,18.44,-4.45,31.92
13687,-0.05,-0.28,1.11,-35.09,13.08,-2.70,32.01
13697,-0.04,-0.27,1.16,-34.79,9.27,0.62,32.01
13707,-0.02,-0.29,1.20,-33.45,5.49,3.82,31.97
13717,0.02,-0.32,1.24,-30.07,4.88,4.46,31.97
13727,0.05,-0.31,1.26,-28.28,4.60,3.27,31.97
13737,0.04,-0.31,1.27,-27.81,4.94,3.67,32.06
13747,0.04,-0.31,1.32,-22.66,0.03,5.24,31.97
13757,0.06,-0.32,1.35,-16.85,-0.63,6.69,31.87
13767,0.10,-0.34,1.35,-14.72,-1.58,6.12,31.97
13777,0.12,-0.35,1.37,-18.53,-2.38,3.41,31.92
13787,0.13,-0.34,1.38,-20.80,-1.66,0.99,32.01
13797,0.12,-0.33,1.39,-17.55,0.60,0.22,32.01
13807,0.09,-0.34,1.42,-11.24,3.22,1.09,32.01
13817,0.07,-0.36,1.45,-4.15,4.92,1.89,32.11
13827,0.07,-0.35,1.41,2.51,3.03,2.50,32.01
13837,0.07,-0.34,1.37,6.91,0.58,2.00,32.01
13847,0.09,-0.34,1.34,10.36,-0.60,0.92,32.01
13857,0.10,-0.32,1.28,13.15,0.56,0.18,32.06
13867,0.09,-0.30,1.22,12.53,3.55,-0.69,31.97
13877,0.07,-0.28,1.21,12.74,5.02,-0.02,32.06
13887,0.07,-0.29,1.19,12.46,8.87,1.03,31.97
13897,0.07,-0.29,1.17,12.24,12.69,2.53,31.97
13907,0.06,-0.29,1.14,9.90,13.86,2.98,32.01
13917,0.05,-0.30,1.12,9.60,13.57,3.96,31.97
13927,0.05,-0.33,1.13,11.08,8.49,3.73,32.06
13937,0.03,-0.34,1.15,15.00,2.56,3.34,31.92
13947,0.01,-0.32,1.10,16.95,-1.47,2.99,32.01
13957,0.02,-0.30,1.05,16.82,-3.13,3.67,32.01
13967,0.03,-0.31,1.05,20.47,-3.45,4.96,32.01
13977,0.07,-0.31,1.03,23.82,-1.15,5.38,31.92
13987,0.07,-0.30,0.99,23.62,1.36,5.22,32.01
13997,0.08,-0.28,0.96,21.31,0.17,4.26,32.01
14007,0.09,-0.26,0.92,16.24,0.75,2.89,32.06
14017,0.08,-0.22,0.88,9.69,-0.89,2.31,31.97
14027,0.07,-0.20,0.85,1.80,0.85,2.99,32.06
14037,0.05,-0.21,0.85,-5.19,3.91,4.27,32.06
14047,0.05,-0.26,0.90,-7.34,4.59,5.48,31.97
14057,0.05,-0.31,0.96,-5.01,4.11,5.63,32.06
14067,0.04,-0.33,1.02,-3.13,3.24,4.88,31.97
14077,0.03,-0.32,1.04,0.62,0.89,4.47,31.92
14087,-0.01,-0.32,1.07,1.63,-4.58,3.98,31.97
14097,-0.03,-0.29,1.11,2.96,-12.63,4.33,32.01
14107,-0.04,-0.26,1.14,4.85,-21.47,4.69,32.11
14117,-0.04,-0.24,1.14,6.77,-27.18,6.25,32.01
14127,-0.02,-0.23,1.16,9.21,-29.39,7.80,32.01
14137,0.05,-0.22,1.14,10.74,-20.84,8.81,31.92
14147,0.09,-0.22,1.12,10.30,-10.78,8.07,32.01
14157,0.10,-0.21,1.11,5.24,2.25,6.14,32.01
14167,0.08,-0.22,1.12,1.06,10.97,4.63,32.01
14177,0.05,-0.25,1.14,2.54,14.40,5.84,31.97
14187,0.05,-0.27,1.13,4.64,14.94,7.23,31.97
14197,0.06,-0.28,1.11,6.09,12.30,8.23,31.97
14207,0.08,-0.29,1.09,7.05,7.72,8.70,31.97
14217,0.11,-0.28,1.06,10.14,3.18,8.50,32.06
14227,0.15,-0.28,1.01,12.07,1.63,8.27,31.97
14237,0.18,-0.28,0.95,11.84,2.90,7.41,32.06
14247,0.22,-0.27,0.91,10.38,5.96,5.61,31.92
14257,0.23,-0.27,0.89,7.73,9.36,3.25,31.92
14267,0.24,-0.28,0.88,5.28,12.56,0.05,32.01
14277,0.24,-0.27,0.87,2.04,17.08,-3.12,32.01
14287,0.21,-0.25,0.89,-1.42,20.24,-6.58,32.01
14297,0.17,-0.25,0.93,-2.98,19.29,-8.81,32.01
14307,0.14,-0.23,0.94,-5.27,19.79,-10.24,32.11
14317,0.10,-0.23,0.98,-5.42,15.93,-10.77,32.01
14327,0.07,-0.23,1.02,-4.37,13.98,-11.27,32.01
14337,0.04,-0.23,1.04,-1.91,11.34,-10.52,32.06
14347,0.02,-0.21,1.04,0.24,10.92,-9.27,31.97
14357,0.02,-0.19,1.01,0.79,10.95,-8.22,32.06
14367,0.02,-0.20,1.02,1.15,9.45,-8.81,31.87
14377,0.02,-0.20,1.03,1.60,7.63,-9.29,31.97
14387,0.01,-0.19,1.01,1.56,6.04,-9.51,31.97
14397,0.00,-0.17,1.01,0.72,4.34,-8.89,31.97
14407,0.01,-0.16,0.99,0.32,4.07,-7.99,31.97
14417,0.00,-0.18,1.00,0.51,3.98,-7.09,32.01
14427,0.00,-0.19,1.01,0.67,5.37,-6.14,32.01
14437,-0.01,-0.20,1.01,-0.12,5.40,-5.56,32.01
14447,-0.01,-0.21,1.01,-0.40,4.76,-4.78,31.92
14457,-0.00,-0.22,1.01,-1.18,3.06,-4.07,32.01
14467,-0.01,-0.21,1.03,-1.40,2.15,-2.67,32.01
14477,0.00,-0.22,1.01,-2.56,4.44,-1.53,32.01
14487,0.00,-0.22,1.02,-4.69,7.34,-0.71,31.92
14497,-0.00,-0.24,1.06,-5.44,8.23,-0.22,32.11
14507,-0.01,-0.26,1.07,-6.11,7.69,-0.27,31.97
14517,-0.01,-0.27,1.09,-6.02,7.57,0.03,31.97
14527,-0.03,-0.28,1.09,-6.21,10.00,1.73,32.06
14537,-0.03,-0.29,1.12,-5.88,12.15,3.76,32.06
14547,-0.03,-0.31,1.14,-2.44,11.15,4.40,32.06
14557,-0.02,-0.30,1.12,1.52,7.28,4.22,31.97
14567,-0.01,-0.26,1.05,4.40,4.21,4.58,31.97
14577,0.02,-0.21,0.98,2.54,4.49,5.29,31.97
14587,0.05,-0.19,0.93,-1.62,9.41,6.02,32.01
14597,0.07,-0.16,0.91,-6.38,16.94,5.78,32.06
14607,0.06,-0.16,0.92,-11.95,24.77,5.47,32.01
14617,0.04,-0.15,0.97,-17.56,31.11,6.23,32.01
14627,0.01,-0.17,1.03,-20.11,32.47,6.98,32.01
14637,-0.03,-0.19,1.11,-19.34,28.70,8.25,32.01
14647,-0.03,-0.21,1.14,-17.15,23.08,9.93,32.01
14657,-0.03,-0.22,1.16,-13.37,17.27,11.62,32.11
14667,-0.01,-0.23,1.18,-9.15,10.21,12.21,32.11
14677,0.01,-0.24,1.17,-5.77,3.56,12.46,32.01
14687,0.03,-0.25,1.15,-3.63,-1.87,11.71,32.01
14697,0.05,-0.25,1.15,-1.59,-6.47,10.18,32.06
14707,0.06,-0.24,1.12,0.14,-9.15,8.15,32.06
14717,0.07,-0.24,1.10,1.82,-10.64,6.99,32.06
14727,0.07,-0.24,1.09,4.27,-12.37,5.49,32.06
14737,0.07,-0.23,1.06,5.51,-13.11,3.95,32.15
14747,0.06,-0.21,1.02,5.67,-13.79,2.79,31.97
14757,0.06,-0.20,0.98,5.73,-12.92,1.95,32.01
14767,0.07,-0.22,0.97,5.37,-10.47,0.74,31.97
14777,0.08,-0.22,0.96,6.27,-7.90,-0.05,32.06
14787,0.08,-0.21,0.93,4.82,-2.65,-1.48,32.01
14797,0.06,-0.19,0.92,2.15,1.73,-2.13,32.11
14807,0.05,-0.17,0.92,-0.62,5.55,-2.11,32.11
14817,0.03,-0.18,0.92,-3.05,7.92,-1.55,32.01
14827,0.00,-0.18,0.94,-5.15,8.60,-0.76,32.11
14837,-0.01,-0.18,0.96,-6.75,7.35,0.31,32.01
14847,-0.03,-0.17,0.98,-8.23,5.03,1.08,32.11
14857,-0.02,-0.18,0.99,-9.36,1.08,1.43,32.01
14867,-0.01,-0.18,0.99,-9.96,-1.63,2.43,32.01
14877,-0.01,-0.19,1.01,-11.08,-3.28,3.07,31.97
14887,0.00,-0.21,1.02,-10.60,-3.22,3.02,32.06
14897,0.02,-0.21,1.04,-10.24,-0.74,3.36,32.06
14907,0.01,-0.22,1.06,-9.68,1.72,3.44,32.06
14917,-0.00,-0.22,1.07,-8.91,1.23,3.56,32.06
14927,-0.00,-0.23,1.07,-7.92,-1.03,3.36,32.11
14937,0.01,-0.22,1.07,-7.73,-3.39,3.05,32.06
14947,0.01,-0.21,1.06,-7.93,-4.32,3.39,32.06
14957,0.02,-0.22,1.05,-8.21,-3.87,3.54,32.01
14967,0.02,-0.22,1.04,-7.60,-3.48,3.55,32.11
14977,0.03,-0.22,1.04,-7.51,-2.50,2.94,32.01
14987,0.04,-0.22,1.04,-7.21,-0.55,2.47,32.11
14997,0.05,-0.23,1.05,-7.68,1.66,1.47,32.11
15007,0.05,-0.24,1.05,-7.92,3.54,0.12,32.01
15017,0.05,-0.23,1.06,-7.82,5.94,-1.18,32.01
15027,0.03,-0.22,1.06,-8.05,8.48,-2.11,32.11
15037,0.01,-0.22,1.06,-7.94,9.60,-1.78,32.11
15047,-0.01,-0.22,1.07,-7.47,10.23,-1.09,31.97
15057,-0.02,-0.22,1.10,-6.90,8.81,-0.75,32.06
15067,-0.02,-0.22,1.09,-6.18,6.35,-0.63,32.06
15077,-0.03,-0.23,1.10,-5.24,4.81,-0.61,31.97
15087,-0.03,-0.22,1.10,-4.03,3.53,0.08,32.06
15097,-0.02,-0.22,1.09,-2.76,2.17,0.68,32.11
15107,-0.02,-0.22,1.09,-1.81,1.15,1.31,32.06
15117,-0.01,-0.21,1.07,-1.39,0.09,1.82,32.06
15127,-0.00,-0.21,1.04,-2.13,-0.25,2.23,32.20
15137,0.01,-0.22,1.03,-2.95,0.35,1.85,32.01
15147,0.02,-0.21,1.04,-2.87,1.11,1.17,32.11
15157,0.03,-0.21,1.02,-3.40,2.31,1.09,32.01
15167,0.03,-0.21,1.01,-4.53,3.99,0.81,32.01
15177,0.03,-0.22,1.01,-5.35,4.69,0.60,32.01
15187,0.03,-0.22,1.02,-5.55,4.56,-0.15,32.11
15197,0.02,-0.22,1.01,-6.11,3.99,-0.53,32.01
15207,0.01,-0.24,1.02,-6.82,2.42,-0.59,32.06
15217,0.01,-0.23,1.02,-6.56,0.26,-0.19,32.06
15227,0.01,-0.22,1.01,-7.39,-2.95,0.14,32.15
15237,0.01,-0.23,1.01,-9.15,-6.57,0.82,32.06
15247,0.02,-0.22,0.99,-11.31,-9.26,-0.41,32.06
15257,0.01,-0.23,0.99,-13.69,-8.49,-0.38,32.15
