Timestamp,Acce_X,Acce_Y,Acce_Z,Gyro_X,Gyro_Y,Gyro_Z,Temp
9717,-0.19,-0.32,0.88,-18.38,1.16,-1.19,32.81
9727,-0.19,-0.31,0.85,-25.11,2.87,-3.39,32.86
9737,-0.22,-0.29,0.87,-25.71,2.50,-6.06,32.77
9747,-0.22,-0.28,0.84,-31.60,7.11,-8.92,32.67
9757,-0.22,-0.31,0.86,-37.65,8.35,-10.11,32.77
9767,-0.22,-0.34,0.93,-38.31,10.90,-11.39,32.86
9777,-0.26,-0.35,0.95,-40.11,16.85,-13.30,32.77
9787,-0.29,-0.33,0.96,-38.61,21.44,-11.45,32.86
9797,-0.37,-0.35,1.01,-42.46,16.29,-12.26,32.86
9807,-0.37,-0.33,0.97,-46.03,12.05,-14.49,32.86
9817,-0.40,-0.31,1.00,-51.31,-2.93,-15.94,32.91
9827,-0.48,-0.30,1.03,-53.40,-22.44,-18.98,32.77
9837,-0.50,-0.27,1.02,-56.09,-39.76,-18.09,32.77
9847,-0.47,-0.24,1.02,-64.70,-48.27,-12.76,32.77
9857,-0.48,-0.30,1.13,-68.95,-37.04,-6.44,32.81
9867,-0.43,-0.34,1.20,-75.95,-32.43,-0.29,32.81
9877,-0.29,-0.36,1.28,-76.64,-23.16,3.98,32.81
9887,-0.24,-0.42,1.37,-78.53,-31.66,-1.04,32.81
9897,-0.14,-0.50,1.38,-75.77,-45.33,-4.67,32.91
9907,-0.12,-0.50,1.34,-78.08,-62.81,-10.37,32.81
9917,-0.10,-0.60,1.28,-78.17,-62.87,-16.09,32.81
9927,-0.07,-0.71,1.37,-52.66,-40.38,-22.05,32.81
9937,-0.14,-0.75,1.40,-31.60,-21.77,-22.72,32.81
9947,-0.21,-0.72,1.43,-9.83,-13.56,-21.91,32.91
9957,-0.29,-0.62,1.35,5.85,-16.29,-17.95,32.81
9967,-0.35,-0.54,1.28,10.92,-20.14,-10.90,32.72
9977,-0.44,-0.52,1.32,18.44,-40.11,-4.52,32.81
9987,-0.39,-0.48,1.29,18.32,-51.34,-3.27,32.77
9997,-0.38,-0.50,1.26,5.15,-39.28,1.80,32.77
10007,-0.38,-0.60,1.37,-5.98,-31.28,6.23,32.86
10017,-0.34,-0.70,1.53,0.11,-33.37,8.81,32.86
10027,-0.29,-0.75,1.56,18.76,-26.93,13.18,32.77
10037,-0.22,-0.77,1.53,34.82,-23.59,15.48,32.77
10047,-0.14,-0.75,1.44,47.47,-19.36,12.64,32.77
10057,-0.10,-0.68,1.31,49.77,-13.27,9.56,32.86
10067,-0.10,-0.64,1.24,46.50,-6.35,6.12,32.86
10077,-0.15,-0.64,1.24,45.91,-3.50,4.37,32.77
10087,-0.20,-0.66,1.28,47.44,-4.60,4.24,32.77
10097,-0.24,-0.70,1.28,51.79,-5.45,5.33,32.86
10107,-0.28,-0.71,1.29,57.65,-4.69,8.11,32.91
10117,-0.27,-0.70,1.25,61.76,-1.62,9.02,32.86
10127,-0.31,-0.66,1.20,66.18,-7.10,12.70,32.81
10137,-0.24,-0.60,1.11,61.40,-2.03,16.72,32.81
10147,-0.23,-0.60,1.15,59.51,-7.86,19.13,32.81
10157,-0.18,-0.59,1.15,56.18,-15.54,19.48,32.81
10167,-0.08,-0.68,1.23,59.07,-25.31,15.33,32.81
10177,-0.10,-0.70,1.24,61.36,-44.55,11.33,32.72
10187,0.00,-0.67,1.19,71.19,-46.27,8.99,32.72
10197,0.09,-0.68,1.08,77.69,-25.28,6.93,32.72
10207,0.15,-0.62,1.05,74.60,0.26,3.42,32.72
10217,0.10,-0.59,1.10,73.68,27.71,1.02,32.81
10227,-0.01,-0.62,1.16,67.76,44.26,-3.94,32.81
10237,-0.15,-0.63,1.27,72.02,40.37,-4.14,32.81
10247,-0.24,-0.60,1.24,86.50,28.78,-3.22,32.72
10257,-0.33,-0.54,1.18,98.49,15.45,4.21,32.72
10267,-0.36,-0.51,1.16,109.69,0.64,10.99,32.72
10277,-0.34,-0.51,1.13,118.61,-11.74,16.67,32.81
10287,-0.30,-0.49,1.10,123.18,-19.24,19.82,32.72
10297,-0.25,-0.47,1.06,126.78,-21.80,21.44,32.81
10307,-0.18,-0.44,1.01,125.62,-20.52,20.69,32.77
10317,-0.14,-0.40,0.97,120.27,-18.53,19.37,32.77
10327,-0.11,-0.38,0.98,115.60,-21.04,17.30,32.77
10337,-0.09,-0.37,1.01,116.00,-23.39,15.48,32.77
10347,-0.07,-0.36,1.00,117.24,-26.38,13.50,32.77
10357,-0.08,-0.34,0.98,117.56,-25.80,11.68,32.77
10367,-0.11,-0.32,0.97,118.24,-27.31,9.18,32.77
10377,-0.14,-0.29,0.93,117.73,-26.29,8.84,32.86
10387,-0.17,-0.24,0.88,115.36,-24.06,8.14,32.77
10397,-0.18,-0.18,0.83,112.70,-19.98,9.54,32.86
10407,-0.17,-0.15,0.79,109.44,-13.94,11.44,32.77
10417,-0.17,-0.13,0.74,103.25,-3.01,12.85,32.77
10427,-0.19,-0.08,0.73,92.55,7.76,14.47,32.77
10437,-0.23,-0.06,0.80,86.31,10.03,15.24,32.72
10447,-0.29,-0.03,0.90,86.50,-7.05,16.14,32.77
10457,-0.32,-0.03,0.94,89.37,-26.61,17.97,32.86
10467,-0.33,-0.03,0.95,91.47,-40.93,22.84,32.81
10477,-0.26,-0.02,0.96,97.28,-45.77,26.26,32.81
10487,-0.19,-0.02,0.90,98.34,-37.62,29.80,32.72
10497,-0.12,-0.01,0.84,97.63,-20.34,34.58,32.72
10507,-0.05,-0.03,0.86,100.76,-7.51,37.11,32.72
10517,0.03,-0.01,0.85,104.73,-5.28,34.58,32.62
10527,0.05,0.02,0.80,105.56,-8.38,29.57,32.72
10537,0.03,0.03,0.81,107.85,-22.52,24.35,32.72
10547,0.00,0.06,0.78,111.33,-37.57,20.21,32.72
10557,-0.00,0.10,0.72,111.82,-48.82,17.92,32.72
10567,0.01,0.13,0.66,110.47,-53.34,18.69,32.72
10577,0.10,0.14,0.61,111.85,-49.50,19.05,32.72
10587,0.19,0.16,0.53,113.28,-34.20,17.88,32.72
10597,0.25,0.20,0.48,113.89,-15.08,16.03,32.72
10607,0.28,0.22,0.50,116.72,0.37,13.13,32.72
10617,0.28,0.24,0.57,122.06,2.20,8.50,32.72
10627,0.31,0.24,0.60,123.18,-3.86,1.44,32.72
10637,0.34,0.22,0.68,127.04,-14.21,-4.70,32.77
10647,0.36,0.18,0.76,131.89,-9.62,-7.76,32.67
10657,0.30,0.15,0.85,139.53,2.56,-3.95,32.77
10667,0.22,0.07,0.95,149.82,17.36,-1.24,32.67
10677,0.14,-0.03,1.00,155.25,11.73,-14.43,32.67
10687,0.07,-0.10,0.87,155.28,-2.52,-29.13,32.67
10697,-0.05,-0.00,0.62,155.01,-5.24,-37.76,32.77
10707,-0.22,0.31,0.35,153.92,-6.63,-37.24,32.77
10717,-0.15,0.47,0.13,155.60,-9.51,-38.32,32.77
10727,-0.05,0.69,0.02,151.82,-12.31,-31.36,32.77
10737,-0.03,0.85,0.06,148.58,-12.79,-20.56,32.67
10747,-0.01,0.91,0.14,142.67,-25.68,-6.37,32.77
10757,0.06,0.71,0.38,144.15,-59.15,0.27,32.67
10767,0.20,0.54,0.53,152.21,-84.00,-4.17,32.72
10777,0.32,0.52,0.47,153.76,-57.76,-19.91,32.77
10787,0.27,0.61,0.42,141.74,-32.38,-31.40,32.67
10797,0.15,0.71,0.41,121.13,-13.25,-38.06,32.72
10807,0.04,0.80,0.46,97.22,-2.73,-38.14,32.72
10817,-0.07,0.89,0.49,72.69,0.08,-37.21,32.72
10827,-0.16,0.84,0.63,59.04,-25.22,-32.38,32.72
10837,-0.15,0.74,0.73,59.39,-53.33,-23.59,32.72
10847,-0.09,0.63,0.86,69.16,-78.06,-17.31,32.62
10857,0.02,0.55,0.91,89.40,-93.59,-11.31,32.72
10867,0.20,0.57,0.77,107.54,-91.94,-9.83,32.72
10877,0.33,0.62,0.62,115.56,-74.11,-12.56,32.72
10887,0.36,0.67,0.50,114.92,-46.63,-16.72,32.72
10897,0.31,0.70,0.46,107.31,-30.75,-26.69,32.81
10907,0.27,0.68,0.47,96.47,-34.76,-40.82,32.72
10917,0.25,0.70,0.40,86.38,-50.24,-49.57,32.62
10927,0.26,0.75,0.28,72.29,-36.17,-58.61,32.62
10937,0.19,0.76,0.32,68.89,-28.58,-63.48,32.72
10947,0.10,0.77,0.33,68.95,-18.90,-64.53,32.72
10957,-0.02,0.76,0.30,68.56,-14.09,-59.39,32.81
10967,-0.10,0.81,0.25,70.47,-13.16,-49.04,32.67
10977,-0.11,0.82,0.20,66.08,-11.15,-42.17,32.67
10987,-0.14,0.77,0.26,58.03,-23.33,-40.14,32.77
10997,-0.13,0.71,0.30,51.65,-42.24,-36.24,32.77
11007,-0.03,0.68,0.33,49.27,-56.26,-38.93,32.67
11017,0.04,0.63,0.36,47.24,-60.85,-48.60,32.67
11027,0.13,0.65,0.31,50.95,-55.71,-56.29,32.67
11037,0.20,0.75,0.23,55.47,-33.24,-63.83,32.67
11047,0.18,0.82,0.14,57.88,-6.37,-69.47,32.77
11057,0.11,0.86,0.11,56.95,16.56,-71.53,32.72
11067,-0.02,0.90,0.10,53.51,26.41,-69.56,32.77
11077,-0.12,0.91,0.05,45.60,33.77,-63.88,32.77
11087,-0.27,0.86,0.11,36.44,30.78,-55.15,32.67
11097,-0.33,0.82,0.17,29.88,29.27,-47.13,32.72
11107,-0.38,0.79,0.27,23.76,15.16,-46.09,32.81
11117,-0.36,0.74,0.38,21.21,-12.00,-51.85,32.72
11127,-0.27,0.74,0.41,24.63,-39.95,-58.21,32.72
11137,-0.19,0.82,0.33,27.07,-55.94,-62.58,32.72
11147,-0.07,0.88,0.25,31.68,-51.77,-63.89,32.62
11157,0.02,0.88,0.22,37.18,-28.00,-65.28,32.62
11167,0.02,0.81,0.22,45.13,7.91,-64.55,32.72
11177,-0.11,0.74,0.25,57.11,51.21,-63.24,32.72
11187,-0.30,0.72,0.27,67.94,79.94,-57.31,32.72
11197,-0.50,0.76,0.31,74.66,81.91,-47.31,32.72
11207,-0.57,0.84,0.26,81.13,57.15,-39.27,32.72
11217,-0.50,0.94,0.12,77.65,26.03,-40.03,32.72
11227,-0.40,0.98,-0.02,67.31,-2.81,-43.19,32.62
11237,-0.32,0.98,-0.06,50.53,-25.97,-49.22,32.72
11247,-0.30,0.91,-0.01,39.04,-34.90,-49.82,32.67
11257,-0.24,0.85,-0.02,38.14,-24.27,-45.73,32.77
11267,-0.15,0.81,-0.09,39.02,0.24,-42.31,32.77
11277,-0.12,0.78,-0.10,40.78,29.65,-40.70,32.77
11287,-0.15,0.74,-0.06,43.88,52.17,-39.73,32.77
11297,-0.25,0.73,0.02,55.48,62.81,-35.47,32.67
11307,-0.34,0.75,0.02,70.84,70.26,-29.82,32.67
11317,-0.44,0.76,0.01,79.48,68.84,-25.98,32.67
11327,-0.50,0.78,-0.02,83.08,57.07,-25.47,32.67
11337,-0.58,0.83,-0.08,81.47,30.92,-28.66,32.77
11347,-0.66,0.81,-0.02,69.18,-10.18,-36.26,32.67
11357,-0.72,0.81,-0.03,64.29,-59.18,-50.96,32.67
11367,-0.75,0.85,-0.12,58.58,-98.09,-69.33,32.67
11377,-0.80,0.70,-0.11,51.04,-125.27,-92.64,32.67
11387,-0.88,0.59,-0.14,53.91,-112.85,-113.11,32.62
11397,-0.90,0.59,-0.25,93.73,-63.77,-118.15,32.67
11407,-0.99,0.63,-0.43,163.39,8.06,-114.95,32.67
11417,-1.12,0.96,-0.75,235.28,80.43,-92.38,32.77
11427,-1.32,1.47,-1.18,280.08,122.38,-49.08,32.81
11437,-1.30,1.84,-1.56,261.92,147.21,5.89,32.62
11447,-1.26,1.88,-1.68,193.27,112.31,47.91,32.81
11457,-1.05,1.58,-1.57,93.92,45.86,74.67,32.72
11467,-0.73,1.17,-1.29,16.32,-22.21,87.31,32.62
11477,-0.43,0.69,-0.99,-17.54,-61.08,82.12,32.72
11487,-0.08,0.48,-0.64,-20.69,-61.83,64.87,32.72
11497,0.19,0.50,-0.53,-12.79,-29.97,43.95,32.72
11507,0.31,0.65,-0.53,-17.59,12.98,21.33,32.72
11517,0.34,0.78,-0.52,-39.60,44.81,-2.32,32.81
11527,0.20,0.79,-0.37,-66.43,51.89,-24.61,32.62
11537,-0.00,0.76,-0.19,-87.30,38.21,-39.02,32.72
11547,-0.21,0.71,-0.03,-95.15,29.79,-47.57,32.62
11557,-0.34,0.66,0.11,-83.33,26.66,-52.29,32.62
11567,-0.49,0.65,0.19,-55.19,31.25,-54.60,32.72
11577,-0.63,0.74,0.18,-27.44,34.63,-52.82,32.72
11587,-0.86,0.94,0.02,-5.42,35.39,-43.63,32.72
11597,-1.01,1.08,-0.13,-0.58,28.20,-23.21,32.67
11607,-1.06,1.15,-0.25,-5.18,19.21,1.37,32.67
11617,-1.02,1.13,-0.29,-15.51,-2.27,20.55,32.77
11627,-0.88,1.05,-0.34,-26.49,-26.23,34.82,32.77
11637,-0.73,1.00,-0.40,-33.82,-49.65,47.33,32.67
11647,-0.48,0.94,-0.44,-38.00,-55.68,55.57,32.67
11657,-0.25,0.81,-0.40,-40.32,-50.24,54.52,32.67
11667,-0.06,0.69,-0.31,-33.86,-37.91,46.61,32.77
11677,0.02,0.63,-0.25,-23.71,-21.79,35.22,32.86
11687,0.06,0.64,-0.27,-14.58,-2.98,21.94,32.77
11697,0.05,0.72,-0.32,-13.88,13.88,8.47,32.77
11707,-0.09,0.82,-0.34,-23.95,20.02,-4.84,32.77
11717,-0.27,0.89,-0.31,-34.15,12.44,-12.24,32.72
11727,-0.43,0.92,-0.25,-43.25,-4.84,-11.80,32.77
11737,-0.52,0.92,-0.20,-44.21,-17.37,-6.92,32.67
11747,-0.50,0.94,-0.19,-37.15,-14.44,-1.18,32.81
11757,-0.48,1.00,-0.23,-29.42,3.01,5.83,32.72
11767,-0.50,1.03,-0.22,-30.70,23.28,12.81,32.81
11777,-0.53,1.02,-0.13,-30.37,29.65,18.98,32.72
11787,-0.57,0.98,-0.04,-27.94,25.34,23.88,32.72
11797,-0.58,0.93,-0.00,-24.85,9.34,28.11,32.81
11807,-0.54,0.94,-0.03,-18.98,-8.90,31.10,32.81
11817,-0.46,0.98,-0.14,-16.05,-16.21,32.98,32.72
11827,-0.34,1.03,-0.24,-15.76,-5.83,35.04,32.81
11837,-0.25,1.02,-0.32,-13.39,16.89,33.63,32.72
11847,-0.26,1.02,-0.35,-10.43,42.00,31.39,32.72
11857,-0.31,1.01,-0.34,-7.69,58.52,28.73,32.72
11867,-0.36,1.03,-0.36,-7.77,67.71,25.62,32.81
11877,-0.44,1.06,-0.37,-11.08,64.93,20.35,32.81
11887,-0.51,1.10,-0.36,-17.02,48.23,17.10,32.72
11897,-0.56,1.13,-0.37,-27.24,25.74,18.27,32.67
11907,-0.57,1.17,-0.39,-37.18,2.60,22.93,32.67
11917,-0.53,1.20,-0.40,-43.51,-11.71,28.52,32.77
11927,-0.46,1.18,-0.43,-48.61,-14.03,31.97,32.67
11937,-0.39,1.16,-0.45,-53.27,-6.58,31.01,32.77
11947,-0.36,1.13,-0.44,-52.78,9.56,28.34,32.77
11957,-0.40,1.10,-0.45,-50.00,29.05,24.50,32.77
11967,-0.45,1.14,-0.52,-47.40,51.51,20.09,32.77
11977,-0.65,1.15,-0.48,-47.89,31.21,23.36,32.67
11987,-0.70,1.17,-0.47,-60.75,2.82,27.34,32.67
11997,-0.69,1.20,-0.47,-75.16,-36.11,32.11,32.77
12007,-0.59,1.20,-0.45,-90.61,-78.14,36.05,32.81
12017,-0.40,1.16,-0.45,-105.01,-105.05,37.11,32.77
12027,-0.11,1.05,-0.41,-115.85,-107.42,35.57,32.77
12037,0.12,0.89,-0.34,-127.40,-88.53,23.59,32.77
12047,0.20,0.79,-0.21,-132.26,-60.64,7.48,32.72
12057,0.15,0.73,-0.08,-127.16,-27.08,-10.34,32.81
12067,0.02,0.71,0.04,-121.47,-7.50,-24.72,32.72
12077,-0.14,0.79,0.08,-111.56,-8.58,-32.17,32.81
12087,-0.28,0.87,0.03,-101.16,-14.75,-30.66,32.72
12097,-0.40,0.94,0.01,-88.12,-8.44,-15.45,32.81
12107,-0.47,1.01,-0.02,-71.04,7.94,10.27,32.81
12117,-0.55,1.02,-0.06,-58.49,24.14,31.83,32.72
12127,-0.48,1.00,-0.09,-48.81,22.75,41.73,32.81
12137,-0.45,0.95,-0.10,-55.74,12.02,41.24,32.72
12147,-0.42,0.91,-0.15,-66.05,-4.14,38.06,32.81
12157,-0.33,0.93,-0.19,-85.45,-16.82,31.59,32.72
12167,-0.25,0.89,-0.21,-106.00,-19.05,25.88,32.81
12177,-0.39,0.86,-0.20,-130.27,-5.71,35.28,32.72
12187,-0.56,0.79,-0.01,-131.10,3.91,60.95,32.72
12197,-0.48,0.67,0.14,-118.44,19.28,81.73,32.72
12207,-0.30,0.61,0.20,-109.45,9.94,88.00,32.77
12217,-0.11,0.59,0.15,-108.24,3.71,82.38,32.77
12227,-0.01,0.62,0.10,-114.37,2.70,71.21,32.67
12237,0.05,0.65,0.09,-117.82,1.18,62.06,32.67
12247,0.10,0.64,0.12,-118.98,2.09,54.18,32.86
12257,0.12,0.61,0.14,-121.36,7.59,43.19,32.77
12267,0.03,0.56,0.23,-120.31,16.73,39.18,32.77
12277,-0.08,0.54,0.34,-107.44,32.12,48.69,32.86
12287,-0.08,0.55,0.39,-92.00,44.60,57.13,32.77
12297,-0.00,0.57,0.34,-88.21,53.53,55.19,32.77
12307,0.02,0.60,0.30,-91.95,49.34,45.71,32.77
12317,0.06,0.67,0.25,-94.46,38.99,35.66,32.67
12327,0.11,0.69,0.17,-98.02,30.61,29.31,32.77
12337,0.17,0.68,0.11,-106.76,32.50,24.84,32.72
12347,0.20,0.61,0.14,-113.85,43.33,20.63,32.67
12357,0.22,0.52,0.22,-117.45,51.39,11.79,32.77
12367,0.24,0.41,0.30,-114.18,53.85,-2.27,32.67
12377,0.27,0.31,0.34,-106.76,51.07,-20.34,32.72
12387,0.25,0.28,0.40,-100.85,51.40,-34.18,32.72
12397,0.15,0.30,0.36,-101.16,51.95,-37.77,32.72
12407,0.01,0.32,0.32,-114.46,66.90,-27.57,32.72
12417,-0.06,0.34,0.36,-126.05,85.73,-11.59,32.72
12427,-0.12,0.32,0.47,-126.79,94.76,-1.08,32.72
12437,-0.15,0.29,0.56,-129.25,85.18,0.08,32.72
12447,-0.21,0.27,0.65,-138.44,61.94,-2.67,32.72
12457,-0.31,0.26,0.78,-146.32,37.91,-4.96,32.72
12467,-0.42,0.27,0.88,-146.56,15.37,-0.29,32.81
12477,-0.42,0.27,0.97,-136.64,-9.31,6.89,32.72
12487,-0.36,0.27,1.01,-124.40,-28.41,12.17,32.72
12497,-0.25,0.29,0.96,-111.28,-35.66,14.89,32.81
12507,-0.16,0.31,0.90,-102.82,-29.01,14.18,32.72
12517,-0.05,0.31,0.87,-102.23,-12.82,10.38,32.72
12527,-0.02,0.38,0.79,-103.66,15.73,2.20,32.81
12537,-0.10,0.41,0.78,-107.60,32.15,-3.88,32.72
12547,-0.16,0.40,0.82,-108.73,37.27,-6.76,32.81
12557,-0.19,0.40,0.81,-106.70,35.76,-8.14,32.72
12567,-0.21,0.39,0.80,-105.27,33.50,-7.50,32.81
12577,-0.20,0.39,0.78,-106.85,31.53,-5.28,32.86
12587,-0.16,0.37,0.81,-109.24,34.82,-3.01,32.86
12597,-0.17,0.34,0.83,-115.21,42.70,-1.42,32.67
12607,-0.18,0.30,0.90,-118.35,49.45,-0.27,32.77
12617,-0.21,0.20,1.02,-114.21,46.84,-2.44,32.77
12627,-0.22,0.14,1.08,-104.27,38.50,-7.36,32.77
12637,-0.22,0.16,1.06,-91.65,27.73,-9.94,32.77
12647,-0.18,0.19,0.99,-83.74,17.76,-12.15,32.77
12657,-0.13,0.23,0.93,-83.65,10.44,-17.45,32.77
12667,-0.16,0.24,0.91,-87.60,5.47,-22.26,32.86
12677,-0.21,0.23,0.95,-90.69,-0.34,-24.38,32.77
12687,-0.28,0.21,1.02,-88.06,-7.65,-24.02,32.86
12697,-0.34,0.19,1.04,-81.97,-12.72,-20.82,32.77
12707,-0.36,0.18,1.06,-72.35,-18.41,-14.89,32.81
12717,-0.32,0.19,1.00,-64.35,-23.82,-10.08,32.77
12727,-0.26,0.22,0.89,-62.24,-23.04,-6.41,32.86
12737,-0.21,0.24,0.82,-65.80,-16.61,-4.37,32.77
12747,-0.22,0.26,0.83,-71.53,-10.85,-4.81,32.72
12757,-0.25,0.23,0.89,-76.34,-10.24,-6.76,32.77
12767,-0.31,0.20,0.93,-78.46,-16.26,-7.68,32.72
12777,-0.34,0.19,0.96,-76.96,-24.15,-6.53,32.81
12787,-0.34,0.19,0.96,-75.05,-29.54,-4.72,32.81
12797,-0.32,0.20,0.95,-71.86,-31.63,-2.15,32.81
12807,-0.27,0.17,0.91,-71.62,-27.22,1.04,32.81
12817,-0.23,0.14,0.91,-73.15,-21.13,3.97,32.81
12827,-0.17,0.09,0.90,-73.63,-14.55,2.84,32.81
12837,-0.12,0.07,0.88,-75.21,-9.28,-0.79,32.72
12847,-0.11,0.06,0.87,-80.23,-4.95,-5.47,32.81
12857,-0.16,0.07,0.89,-86.90,-2.55,-8.96,32.81
12867,-0.21,0.06,0.95,-90.27,-3.34,-10.50,32.81
12877,-0.23,0.04,0.98,-90.98,-3.59,-11.13,32.81
12887,-0.27,0.03,1.00,-92.14,-4.70,-11.13,32.81
12897,-0.28,0.00,1.03,-91.39,-10.02,-10.29,32.81
12907,-0.24,0.00,1.03,-90.41,-12.35,-10.55,32.81
12917,-0.18,-0.01,1.00,-92.40,-7.53,-13.05,32.77
12927,-0.22,-0.03,1.03,-96.46,-1.25,-13.48,32.77
12937,-0.22,-0.07,1.09,-95.50,4.79,-11.59,32.67
12947,-0.27,-0.11,1.19,-92.18,10.31,-9.92,32.77
12957,-0.34,-0.13,1.23,-83.85,8.66,-5.08,32.77
12967,-0.37,-0.13,1.24,-77.31,-6.27,2.31,32.77
12977,-0.28,-0.11,1.19,-72.43,-7.79,6.95,32.77
12987,-0.20,-0.11,1.14,-70.44,-16.27,9.59,32.77
12997,-0.11,-0.12,1.09,-71.10,-17.01,10.20,32.77
13007,-0.05,-0.15,1.08,-73.08,-8.58,7.30,32.86
13017,-0.02,-0.19,1.15,-74.40,-2.76,1.82,32.77
13027,-0.06,-0.24,1.21,-73.05,0.03,-4.63,32.77
13037,-0.13,-0.26,1.26,-67.83,-0.75,-6.58,32.72
13047,-0.14,-0.27,1.30,-58.60,-5.59,-7.05,32.67
13057,-0.15,-0.26,1.27,-52.61,-7.42,-7.10,32.77
13067,-0.13,-0.22,1.22,-49.39,-8.72,-5.24,32.72
13077,-0.09,-0.18,1.15,-49.07,-2.50,-6.82,32.81
13087,-0.11,-0.17,1.13,-52.02,3.98,-7.39,32.81
13097,-0.15,-0.19,1.15,-52.85,6.90,-6.56,32.72
13107,-0.19,-0.22,1.18,-54.64,6.40,-7.37,32.72
13117,-0.26,-0.25,1.22,-54.49,1.88,-7.98,32.81
13127,-0.31,-0.28,1.23,-51.68,-5.56,-6.46,32.72
13137,-0.32,-0.33,1.24,-44.50,-16.92,-4.75,32.91
13147,-0.28,-0.31,1.17,-35.01,-22.90,-2.47,32.81
13157,-0.20,-0.26,1.03,-30.18,-19.05,0.14,32.81
13167,-0.12,-0.19,0.90,-33.33,-7.60,-0.35,32.91
13177,-0.09,-0.17,0.86,-41.92,1.92,-3.92,32.81
13187,-0.15,-0.18,0.86,-49.68,7.37,-4.46,32.72
13197,-0.22,-0.23,0.93,-54.87,7.97,-3.04,32.72
13207,-0.28,-0.27,1.00,-55.40,0.27,-0.23,32.81
13217,-0.31,-0.27,1.01,-56.37,-9.65,4.90,32.81
13227,-0.27,-0.28,0.99,-55.36,-17.56,10.32,32.77
13237,-0.18,-0.33,0.98,-53.69,-18.72,13.65,32.77
13247,-0.09,-0.37,0.98,-50.26,-15.39,14.02,32.77
13257,-0.05,-0.38,0.99,-48.50,-5.08,12.26,32.77
13267,-0.03,-0.37,1.01,-49.54,2.73,9.39,32.77
13277,-0.05,-0.38,1.06,-50.52,3.02,5.37,32.77
13287,-0.09,-0.37,1.07,-48.92,-0.14,3.85,32.77
13297,-0.11,-0.37,1.11,-43.42,-5.80,3.56,32.86
13307,-0.11,-0.38,1.14,-34.98,-9.50,2.55,32.77
13317,-0.14,-0.37,1.13,-31.53,-8.78,2.53,32.86
13327,-0.16,-0.36,1.11,-32.64,-4.70,4.58,32.72
13337,-0.19,-0.36,1.12,-37.53,0.35,6.73,32.86
13347,-0.20,-0.38,1.18,-37.34,-1.27,7.83,32.77
13357,-0.20,-0.39,1.18,-34.20,-7.22,8.24,32.77
13367,-0.16,-0.36,1.13,-32.53,-12.66,9.80,32.81
13377,-0.10,-0.34,1.09,-31.47,-16.82,9.68,32.86
13387,-0.06,-0.35,1.09,-28.66,-18.52,8.53,32.77
13397,-0.02,-0.35,1.07,-27.30,-15.16,6.24,32.81
13407,-0.04,-0.34,1.08,-27.08,-8.37,3.50,32.72
13417,-0.07,-0.37,1.11,-27.97,-7.51,1.37,32.91
13427,-0.11,-0.40,1.15,-30.55,-10.29,0.27,32.72
13437,-0.13,-0.41,1.15,-32.09,-13.88,1.91,32.72
13447,-0.15,-0.40,1.16,-32.84,-21.73,2.67,32.81
13457,-0.12,-0.36,1.13,-30.69,-25.68,3.36,32.81
13467,-0.07,-0.33,1.04,-36.31,-21.04,1.44,32.72
13477,-0.06,-0.33,1.03,-41.95,-18.38,-1.77,32.72
13487,-0.05,-0.40,1.12,-43.60,-13.42,-5.76,32.72
13497,-0.09,-0.42,1.14,-42.99,-5.24,-7.13,32.72
13507,-0.16,-0.44,1.21,-38.79,-2.78,-6.06,32.81
13517,-0.18,-0.46,1.25,-32.18,-6.37,-4.21,32.81
13527,-0.20,-0.41,1.21,-28.76,-7.51,-0.11,32.81
13537,-0.14,-0.40,1.19,-28.06,-8.26,3.42,32.72
13547,-0.11,-0.41,1.18,-28.58,-7.34,4.56,32.72
13557,-0.08,-0.41,1.15,-30.38,-9.69,3.94,32.77
13567,-0.03,-0.42,1.13,-30.23,-8.43,0.70,32.86
13577,-0.03,-0.44,1.11,-32.06,-3.51,-2.82,32.86
13587,-0.08,-0.43,1.12,-31.82,3.39,-3.19,32.77
13597,-0.10,-0.44,1.16,-30.21,10.15,-3.36,32.77
13607,-0.11,-0.49,1.17,-25.45,16.00,-0.44,32.77
13617,-0.01,-0.49,1.17,-27.51,31.77,-1.10,32.77
13627,-0.11,-0.53,1.19,-16.27,13.86,-1.27,32.77
13637,-0.09,-0.50,1.15,-9.88,5.83,-0.90,32.77
13647,-0.03,-0.42,1.01,-10.58,10.96,-4.08,32.77
13657,-0.02,-0.38,0.98,-12.81,13.79,-7.85,32.72
13667,-0.09,-0.37,0.92,-18.09,17.27,-10.70,32.77
13677,-0.12,-0.34,0.94,-22.72,19.56,-9.02,32.86
13687,-0.16,-0.42,1.02,-23.56,22.24,-8.29,32.86
13697,-0.22,-0.44,1.13,-22.70,23.25,-4.53,32.72
13707,-0.19,-0.48,1.17,-17.07,23.33,-3.16,32.77
13717,-0.20,-0.51,1.22,-9.68,16.61,-1.77,32.81
13727,-0.20,-0.47,1.18,-6.92,14.56,-1.53,32.72
13737,-0.19,-0.47,1.17,-2.15,4.08,-0.12,32.72
13747,-0.19,-0.46,1.13,0.79,-5.01,0.18,32.72
13757,-0.18,-0.46,1.10,4.40,-15.28,1.24,32.81
13767,-0.12,-0.43,1.01,3.80,-14.47,2.09,32.72
13777,-0.10,-0.41,0.97,1.25,-11.22,1.42,32.72
13787,-0.07,-0.42,0.94,-1.88,-3.33,-0.17,32.81
13797,-0.07,-0.43,0.95,-4.78,1.89,-1.60,32.72
13807,-0.11,-0.44,0.97,-7.15,6.87,-2.89,32.72
13817,-0.17,-0.46,1.00,-6.17,6.64,-2.02,32.72
13827,-0.18,-0.45,1.02,-6.58,1.19,-0.47,32.81
13837,-0.18,-0.45,1.00,-6.11,-6.75,0.69,32.81
13847,-0.18,-0.48,0.99,-3.60,-9.60,0.81,32.72
13857,-0.14,-0.45,0.96,-3.18,-11.44,1.95,32.72
13867,-0.12,-0.45,0.92,-2.64,-11.79,1.48,32.91
13877,-0.10,-0.43,0.89,-5.18,-8.69,2.76,32.72
13887,-0.09,-0.44,0.91,-5.08,-2.52,3.34,32.77
13897,-0.09,-0.46,0.95,-5.86,0.27,2.81,32.77
13907,-0.08,-0.48,0.96,-4.95,1.71,0.96,32.77
13917,-0.09,-0.46,0.96,-4.06,1.21,0.63,32.86
13927,-0.10,-0.45,0.97,-5.34,2.18,0.03,32.77
13937,-0.12,-0.46,1.00,-4.53,-2.61,-0.73,32.67
13947,-0.09,-0.44,0.98,-8.35,-2.18,-0.15,32.77
13957,-0.14,-0.46,0.97,-2.53,-4.38,-0.90,32.77
13967,-0.09,-0.46,0.95,0.27,-5.18,-0.50,32.86
13977,-0.10,-0.43,0.92,-2.02,-2.29,0.75,32.86
13987,-0.10,-0.43,0.94,-4.46,2.43,1.80,32.81
13997,-0.10,-0.44,0.99,-4.14,0.93,2.81,32.86
14007,-0.05,-0.47,0.98,-2.98,4.05,1.37,32.77
14017,-0.04,-0.47,1.00,-2.89,3.89,-0.81,32.77
14027,-0.04,-0.45,1.01,-2.17,6.23,-2.55,32.72
14037,-0.06,-0.45,1.02,-3.16,6.23,-3.98,32.72
14047,-0.09,-0.42,1.03,-3.44,2.53,-4.64,32.72
14057,-0.10,-0.43,1.03,-3.42,-0.43,-4.38,32.81
14067,-0.11,-0.46,1.03,-2.58,-1.86,-3.45,32.72
14077,-0.12,-0.48,1.02,1.56,-2.15,-3.36,32.72
14087,-0.11,-0.46,1.01,3.07,1.39,-2.06,32.72
14097,-0.13,-0.43,0.99,5.68,4.20,-0.69,32.81
14107,-0.16,-0.45,0.97,2.14,4.35,0.32,32.81
14117,-0.14,-0.44,0.99,0.78,1.42,0.87,32.81
14127,-0.12,-0.45,1.02,0.75,-4.05,0.14,32.81
14137,-0.11,-0.45,1.01,0.50,-8.14,-0.63,32.81
14147,-0.09,-0.46,1.02,2.75,-9.86,-0.26,32.72
14157,-0.07,-0.47,0.99,5.57,-7.02,-0.47,32.72
14167,-0.07,-0.46,1.00,6.84,-2.11,-0.35,32.81
14177,-0.06,-0.45,0.97,7.40,1.39,-0.79,32.72
14187,-0.07,-0.45,0.97,7.74,6.92,-2.61,32.81
14197,-0.08,-0.44,0.97,8.69,6.21,-1.65,32.91
14207,-0.10,-0.43,0.97,8.35,6.08,-0.73,32.77
14217,-0.12,-0.43,0.96,7.65,3.88,-0.32,32.77
14227,-0.11,-0.43,0.95,7.04,1.94,0.43,32.86
14237,-0.09,-0.42,0.94,6.06,0.00,-0.12,32.77
14247,-0.08,-0.42,0.93,5.19,-0.70,-1.51,32.77
14257,-0.08,-0.41,0.92,4.20,0.18,-2.27,32.86
14267,-0.10,-0.40,0.93,2.52,1.53,-2.66,32.67
14277,-0.11,-0.41,0.95,2.32,1.62,-1.85,32.77
14287,-0.10,-0.42,0.99,3.74,2.81,-1.04,32.77
14297,-0.11,-0.42,1.00,5.71,3.19,0.12,32.77
14307,-0.11,-0.41,1.02,6.84,2.87,1.42,32.86
14317,-0.10,-0.43,1.01,10.66,-0.76,2.08,32.81
14327,-0.06,-0.42,0.97,8.37,1.98,1.59,32.86
14337,-0.07,-0.43,0.99,8.31,2.92,0.78,32.86
14347,-0.08,-0.41,0.99,8.20,1.19,0.23,32.77
14357,-0.09,-0.40,0.97,6.02,0.44,0.70,32.72
14367,-0.10,-0.42,0.97,3.76,-0.35,0.53,32.81
14377,-0.10,-0.42,0.98,1.63,0.96,0.56,32.81
14387,-0.08,-0.40,0.96,0.05,1.68,0.67,32.81
14397,-0.05,-0.41,0.95,-1.36,4.40,-0.06,32.72
14407,-0.06,-0.42,0.96,-2.66,6.92,-0.95,32.72
14417,-0.05,-0.41,0.97,-3.71,10.52,-2.61,32.72
14427,-0.07,-0.42,1.01,-4.00,11.04,-4.43,32.81
14437,-0.09,-0.42,1.03,-3.15,10.02,-5.54,32.91
14447,-0.10,-0.42,1.04,-2.35,8.18,-5.31,32.72
14457,-0.11,-0.43,1.05,-0.76,5.74,-5.98,32.72
14467,-0.12,-0.43,1.06,1.30,3.80,-6.23,32.72
14477,-0.13,-0.42,1.05,3.28,3.10,-5.39,32.81
14487,-0.14,-0.42,1.05,5.68,2.52,-4.73,32.81
14497,-0.14,-0.41,1.05,6.98,2.34,-3.47,32.72
14507,-0.14,-0.41,1.02,7.08,3.71,-2.32,32.72
14517,-0.13,-0.41,1.02,6.47,6.49,-1.47,32.91
14527,-0.13,-0.41,1.03,6.17,6.67,-1.56,32.77
14537,-0.10,-0.42,1.02,8.37,6.20,-2.32,32.86
14547,-0.10,-0.41,1.00,6.26,10.73,-4.23,32.77
14557,-0.13,-0.40,1.00,6.09,12.06,-4.73,32.77
14567,-0.17,-0.41,1.01,8.35,12.40,-3.51,32.77
14577,-0.20,-0.39,1.00,9.10,12.38,-2.12,32.77
14587,-0.21,-0.37,0.99,8.90,9.98,0.11,32.77
14597,-0.23,-0.37,0.98,7.66,7.51,2.47,32.67
14607,-0.21,-0.36,0.97,6.03,5.57,4.72,32.67
14617,-0.19,-0.36,0.96,3.65,3.18,6.27,32.77
14627,-0.17,-0.34,0.96,2.20,2.21,7.89,32.77
14637,-0.12,-0.35,0.98,0.63,2.90,8.43,32.86
14647,-0.09,-0.35,0.99,-1.57,2.96,7.42,32.81
14657,-0.09,-0.35,1.00,-3.31,2.93,6.40,32.77
14667,-0.09,-0.35,1.03,-3.18,3.25,5.89,32.77
14677,-0.11,-0.38,1.05,-1.79,1.94,5.24,32.86
14687,-0.11,-0.38,1.04,-1.02,2.99,5.50,32.72
14697,-0.11,-0.38,1.03,-0.40,3.45,5.97,32.91
14707,-0.12,-0.37,1.03,-0.79,4.73,6.09,32.81
