Timestamp,Acce_X,Acce_Y,Acce_Z,Gyro_X,Gyro_Y,Gyro_Z,Temp
4817,0.30,-0.72,0.82,-148.17,81.10,-37.39,32.44
4827,0.18,-0.71,0.91,-147.34,80.17,-50.43,32.48
4837,0.04,-0.64,0.99,-151.51,88.89,-55.85,32.39
4847,-0.21,-0.64,1.12,-142.61,84.63,-50.26,32.58
4857,-0.42,-0.63,1.33,-127.28,83.82,-36.21,32.39
4867,-0.54,-0.64,1.52,-98.82,67.16,-20.02,32.39
4877,-0.62,-0.66,1.64,-69.30,38.18,-3.94,32.48
4887,-0.60,-0.66,1.64,-46.50,4.78,9.51,32.48
4897,-0.52,-0.67,1.60,-31.16,-23.82,17.76,32.48
4907,-0.35,-0.67,1.52,-19.94,-43.44,21.36,32.48
4917,-0.20,-0.63,1.41,-11.98,-52.87,24.21,32.39
4927,-0.01,-0.60,1.28,-10.50,-47.05,23.69,32.39
4937,0.14,-0.60,1.22,-13.33,-29.37,18.60,32.44
4947,0.19,-0.61,1.23,-15.69,-7.94,11.08,32.44
4957,0.15,-0.64,1.30,-15.28,8.84,2.79,32.44
4967,0.05,-0.67,1.40,-11.50,15.36,-4.37,32.44
4977,-0.05,-0.65,1.45,-9.22,12.17,-9.77,32.44
4987,-0.16,-0.63,1.47,-6.23,5.13,-10.35,32.44
4997,-0.22,-0.61,1.47,-2.09,-2.53,-8.00,32.53
5007,-0.23,-0.58,1.42,2.56,-6.18,-2.49,32.34
5017,-0.21,-0.58,1.37,5.16,-7.85,2.61,32.44
5027,-0.16,-0.62,1.35,6.40,-7.16,6.17,32.53
5037,-0.09,-0.68,1.37,9.42,-5.50,4.90,32.39
5047,-0.07,-0.72,1.42,12.37,-2.89,0.67,32.48
5057,-0.09,-0.70,1.48,16.73,-0.64,-1.66,32.39
5067,-0.12,-0.69,1.51,22.75,-1.04,-2.63,32.39
5077,-0.17,-0.69,1.53,28.05,-6.43,-2.50,32.39
5087,-0.24,-0.72,1.58,34.58,-19.94,-2.12,32.48
5097,-0.27,-0.72,1.55,40.58,-36.32,-1.98,32.48
5107,-0.23,-0.70,1.44,45.92,-45.86,2.81,32.58
5117,-0.14,-0.70,1.34,49.51,-38.96,6.67,32.39
5127,-0.03,-0.69,1.29,54.26,-26.26,9.44,32.29
5137,0.04,-0.69,1.25,54.95,-12.67,6.17,32.48
5147,0.05,-0.68,1.26,55.82,-4.50,0.20,32.53
5157,0.02,-0.69,1.28,56.32,-0.21,-4.96,32.44
5167,-0.04,-0.73,1.35,60.52,-1.13,-8.46,32.53
5177,-0.11,-0.72,1.36,68.96,-5.59,-11.24,32.44
5187,-0.18,-0.69,1.34,73.79,-13.74,-10.95,32.34
5197,-0.20,-0.67,1.29,80.14,-21.42,-7.31,32.44
5207,-0.16,-0.68,1.25,89.83,-29.48,-4.99,32.53
5217,-0.10,-0.66,1.15,97.63,-33.39,-4.78,32.44
5227,-0.03,-0.65,1.04,102.47,-33.65,-6.98,32.44
5237,0.05,-0.61,0.88,103.56,-25.80,-10.90,32.44
5247,0.06,-0.56,0.83,101.13,-18.27,-14.06,32.48
5257,0.07,-0.52,0.81,99.53,-7.44,-17.68,32.29
5267,0.03,-0.50,0.81,94.67,5.25,-18.17,32.48
5277,-0.04,-0.46,0.86,89.53,13.19,-16.11,32.48
5287,-0.07,-0.44,0.90,88.32,18.14,-13.08,32.48
5297,-0.11,-0.42,0.94,85.45,20.06,-11.44,32.48
5307,-0.15,-0.39,0.97,83.02,22.21,-7.36,32.39
5317,-0.19,-0.34,0.98,79.80,31.18,-2.66,32.39
5327,-0.24,-0.32,1.05,76.79,44.85,2.37,32.39
5337,-0.37,-0.28,1.15,71.34,59.01,9.94,32.39
5347,-0.48,-0.28,1.27,65.69,61.68,20.84,32.48
5357,-0.53,-0.25,1.40,64.49,52.09,32.47,32.39
5367,-0.53,-0.28,1.54,66.02,28.46,42.05,32.44
5377,-0.44,-0.34,1.62,73.89,2.17,49.19,32.34
5387,-0.27,-0.42,1.65,88.31,-18.76,51.02,32.44
5397,-0.10,-0.48,1.61,106.17,-33.92,48.35,32.44
5407,0.09,-0.49,1.43,120.81,-39.42,41.66,32.44
5417,0.21,-0.44,1.24,128.37,-36.27,31.50,32.34
5427,0.31,-0.39,1.03,131.02,-24.38,19.53,32.44
5437,0.30,-0.37,0.88,127.89,-11.02,7.07,32.44
5447,0.24,-0.32,0.77,123.83,2.70,-4.03,32.34
5457,0.14,-0.24,0.71,117.19,12.73,-12.17,32.39
5467,0.03,-0.13,0.68,110.87,18.95,-15.88,32.39
5477,-0.09,-0.10,0.69,104.52,23.16,-14.46,32.29
5487,-0.20,-0.14,0.78,106.64,14.79,-9.13,32.39
5497,-0.23,-0.19,0.84,114.09,-0.70,-4.79,32.48
5507,-0.25,-0.20,0.80,122.92,-17.73,-2.20,32.39
5517,-0.10,-0.15,0.72,124.70,-24.84,0.00,32.39
5527,-0.09,-0.09,0.71,123.16,-31.89,0.63,32.48
5537,-0.06,-0.04,0.70,123.16,-37.36,1.04,32.39
5547,-0.01,-0.01,0.73,125.08,-45.10,-0.21,32.39
5557,0.03,-0.01,0.73,126.44,-51.97,-5.07,32.39
5567,0.07,0.01,0.72,127.21,-54.99,-11.77,32.34
5577,0.06,0.04,0.68,124.40,-50.06,-18.49,32.34
5587,0.03,0.06,0.65,120.18,-35.54,-21.36,32.34
5597,-0.01,0.15,0.65,118.96,-15.51,-19.04,32.34
5607,-0.04,0.28,0.66,121.77,-2.23,-14.03,32.34
5617,-0.03,0.45,0.61,118.95,7.92,-12.37,32.44
5627,0.02,0.58,0.60,108.76,14.96,-15.86,32.39
5637,0.06,0.67,0.59,88.90,26.99,-20.09,32.44
5647,0.05,0.67,0.59,60.75,48.15,-24.24,32.44
5657,-0.02,0.56,0.74,39.66,65.39,-27.57,32.29
5667,-0.18,0.43,0.96,28.34,67.51,-30.17,32.39
5677,-0.25,0.35,1.08,30.56,73.62,-29.89,32.39
5687,-0.37,0.37,1.15,33.07,75.25,-24.43,32.48
5697,-0.46,0.43,1.19,35.16,63.08,-16.29,32.48
5707,-0.48,0.46,1.15,36.12,42.49,-4.98,32.29
5717,-0.47,0.45,1.12,33.01,21.31,7.57,32.39
5727,-0.43,0.44,1.03,28.55,-4.00,18.66,32.29
5737,-0.33,0.39,1.00,24.90,-34.98,25.57,32.29
5747,-0.20,0.26,0.99,28.67,-64.95,28.00,32.48
5757,-0.07,0.18,0.96,38.47,-88.46,26.41,32.34
5767,0.06,0.12,0.90,56.03,-96.23,23.08,32.44
5777,0.15,0.09,0.81,77.37,-91.16,18.87,32.34
5787,0.23,0.11,0.68,94.34,-78.32,12.98,32.44
5797,0.25,0.18,0.56,99.39,-69.04,4.60,32.44
5807,0.22,0.23,0.48,97.86,-69.95,-6.03,32.34
5817,0.17,0.29,0.43,95.73,-78.37,-14.14,32.34
5827,0.10,0.37,0.40,92.27,-90.26,-17.48,32.34
5837,0.09,0.41,0.35,90.41,-98.11,-15.10,32.39
5847,0.15,0.42,0.31,90.00,-91.89,-9.44,32.44
5857,0.21,0.41,0.34,92.24,-85.04,-5.33,32.39
5867,0.30,0.42,0.36,94.90,-76.06,-7.76,32.29
5877,0.34,0.42,0.38,92.34,-67.79,-13.34,32.39
5887,0.33,0.43,0.42,86.17,-56.15,-21.04,32.39
5897,0.35,0.43,0.51,81.24,-43.10,-28.61,32.29
5907,0.32,0.44,0.58,81.44,-30.78,-37.73,32.29
5917,0.24,0.45,0.63,82.64,-21.56,-47.48,32.39
5927,0.15,0.51,0.65,80.23,-20.18,-54.11,32.48
5937,0.08,0.57,0.65,79.37,-23.91,-56.27,32.39
5947,0.03,0.59,0.66,79.08,-29.10,-55.76,32.34
5957,-0.00,0.61,0.69,79.10,-37.50,-52.61,32.25
5967,0.01,0.62,0.68,78.56,-42.20,-47.02,32.34
5977,0.02,0.55,0.71,74.32,-46.02,-40.60,32.44
5987,0.06,0.46,0.73,70.27,-51.56,-35.11,32.44
5997,0.11,0.45,0.69,68.18,-51.53,-34.17,32.34
6007,0.10,0.54,0.60,69.27,-59.45,-33.51,32.39
6017,0.12,0.46,0.66,68.35,-52.12,-38.96,32.34
6027,0.19,0.47,0.59,73.31,-48.55,-42.79,32.34
6037,0.12,0.49,0.53,77.37,-44.67,-46.90,32.39
6047,0.12,0.52,0.44,79.92,-39.44,-49.82,32.39
6057,0.08,0.57,0.42,78.12,-36.82,-52.02,32.39
6067,0.05,0.59,0.37,76.55,-37.77,-52.23,32.39
6077,0.02,0.60,0.34,74.27,-36.67,-50.12,32.39
6087,-0.04,0.62,0.35,72.44,-40.60,-46.63,32.29
6097,-0.07,0.65,0.34,71.34,-47.80,-41.56,32.39
6107,-0.06,0.68,0.28,70.20,-56.00,-35.98,32.39
6117,-0.07,0.69,0.24,69.53,-61.54,-31.88,32.39
6127,-0.05,0.68,0.21,69.98,-65.60,-27.01,32.44
6137,-0.02,0.67,0.19,69.51,-63.88,-24.84,32.44
6147,0.01,0.67,0.20,67.27,-62.14,-25.02,32.34
6157,0.06,0.69,0.23,65.37,-52.23,-31.10,32.34
6167,0.07,0.72,0.26,66.18,-47.25,-41.25,32.44
6177,0.05,0.76,0.25,70.32,-37.16,-50.98,32.34
6187,0.02,0.82,0.22,74.95,-28.00,-58.15,32.34
6197,-0.01,0.89,0.19,76.70,-17.24,-61.63,32.34
6207,-0.06,0.95,0.19,68.38,-7.19,-63.94,32.44
6217,-0.13,1.01,0.22,57.39,-6.85,-64.11,32.20
6227,-0.17,1.05,0.21,51.36,-3.85,-64.49,32.29
6237,-0.23,1.07,0.22,47.34,-8.41,-60.75,32.39
6247,-0.26,1.12,0.22,43.94,-10.96,-54.40,32.39
6257,-0.24,1.14,0.21,42.87,-11.57,-47.57,32.39
6267,-0.20,1.16,0.18,34.78,-10.98,-41.94,32.39
6277,-0.17,1.14,0.20,20.82,-15.53,-37.88,32.39
6287,-0.16,1.13,0.23,8.41,-16.87,-36.40,32.39
6297,-0.13,1.08,0.29,4.69,-14.55,-36.34,32.39
6307,-0.14,1.02,0.38,12.05,-16.70,-36.20,32.48
6317,-0.12,1.03,0.36,21.22,-11.48,-37.13,32.39
6327,-0.11,1.06,0.32,29.24,-0.61,-36.23,32.44
6337,-0.13,1.05,0.29,32.41,6.92,-34.29,32.34
6347,-0.12,1.04,0.28,34.82,17.97,-30.98,32.25
6357,-0.14,1.04,0.25,35.65,29.05,-29.07,32.44
6367,-0.16,1.02,0.26,37.02,36.08,-27.68,32.34
6377,-0.20,0.99,0.27,38.50,40.47,-26.23,32.34
6387,-0.22,0.99,0.29,39.27,43.02,-25.18,32.29
6397,-0.24,1.00,0.27,39.27,41.39,-24.92,32.44
6407,-0.24,1.04,0.22,36.78,38.70,-25.45,32.34
6417,-0.24,1.06,0.18,31.94,31.73,-26.81,32.34
6427,-0.24,1.08,0.13,24.90,25.71,-29.13,32.39
6437,-0.24,1.07,0.10,16.47,18.47,-30.38,32.39
6447,-0.24,1.06,0.07,9.94,11.02,-33.34,32.39
6457,-0.27,1.02,0.11,8.08,6.38,-36.75,32.29
6467,-0.33,1.01,0.12,7.74,6.12,-35.77,32.29
6477,-0.39,1.04,0.14,13.16,7.44,-28.38,32.39
6487,-0.41,1.07,0.12,20.55,9.45,-18.31,32.39
6497,-0.38,1.09,0.06,21.25,13.56,-10.53,32.39
6507,-0.35,1.11,-0.00,18.75,14.35,-5.91,32.39
6517,-0.33,1.14,-0.06,11.92,15.02,-4.64,32.39
6527,-0.31,1.15,-0.10,2.38,15.28,-5.68,32.39
6537,-0.32,1.13,-0.14,-10.23,17.79,-8.18,32.34
6547,-0.36,1.08,-0.10,-16.00,10.75,-10.82,32.44
6557,-0.38,1.10,-0.04,-19.48,11.18,-12.87,32.34
6567,-0.36,1.06,-0.05,-17.63,12.05,-13.60,32.44
6577,-0.37,1.05,-0.00,-14.70,7.36,-11.74,32.34
6587,-0.38,1.08,0.01,-10.26,6.34,-10.31,32.44
6597,-0.37,1.08,0.03,-8.53,1.30,-8.78,32.34
6607,-0.36,1.08,0.02,-8.67,-4.99,-9.57,32.34
6617,-0.34,1.09,0.01,-11.25,-6.26,-10.05,32.34
6627,-0.35,1.09,0.01,-13.27,-4.89,-8.82,32.34
6637,-0.35,1.08,0.04,-16.85,-2.14,-6.14,32.39
6647,-0.35,1.07,0.10,-18.00,0.05,-2.00,32.39
6657,-0.35,1.04,0.16,-15.04,1.62,1.91,32.29
6667,-0.35,0.99,0.23,-10.75,-0.60,5.15,32.39
6677,-0.34,0.97,0.27,-7.36,-8.12,8.02,32.39
6687,-0.30,0.96,0.27,-4.73,-14.79,9.16,32.39
6697,-0.29,0.97,0.26,-7.39,-23.22,10.73,32.39
6707,-0.25,0.97,0.24,-9.07,-20.64,10.93,32.39
6717,-0.21,0.98,0.22,-12.82,-17.34,12.60,32.39
6727,-0.19,0.97,0.22,-16.52,-13.15,13.62,32.29
6737,-0.18,0.94,0.23,-21.02,-10.37,14.20,32.39
6747,-0.16,0.92,0.25,-21.95,-9.42,13.34,32.39
6757,-0.16,0.88,0.30,-15.74,-11.37,11.92,32.34
6767,-0.15,0.86,0.31,-10.50,-10.24,11.80,32.34
6777,-0.14,0.86,0.30,-7.76,-11.33,13.28,32.44
6787,-0.11,0.88,0.27,-6.90,-10.15,14.34,32.44
6797,-0.09,0.88,0.28,-7.31,-9.79,13.91,32.34
6807,-0.08,0.88,0.28,-7.39,-11.86,12.82,32.34
6817,-0.07,0.87,0.27,-7.45,-16.27,10.34,32.34
6827,-0.05,0.89,0.25,-8.06,-18.09,6.32,32.34
6837,-0.02,0.90,0.23,-9.24,-15.19,2.11,32.25
6847,-0.04,0.91,0.23,-10.95,-12.44,-2.66,32.29
6857,-0.08,0.93,0.25,-9.80,-11.56,-5.85,32.34
6867,-0.11,0.95,0.24,-6.95,-9.94,-8.03,32.29
6877,-0.13,1.00,0.22,-4.79,-5.91,-10.08,32.39
6887,-0.18,1.02,0.21,-2.34,-0.67,-11.89,32.29
6897,-0.23,1.04,0.22,0.15,2.37,-13.83,32.39
6907,-0.27,1.08,0.20,0.76,4.87,-14.75,32.48
6917,-0.32,1.11,0.19,0.41,6.87,-14.98,32.48
6927,-0.38,1.15,0.16,-1.25,7.83,-14.12,32.39
6937,-0.44,1.19,0.14,-3.22,6.69,-11.02,32.29
6947,-0.50,1.22,0.09,-4.78,8.20,-3.50,32.39
6957,-0.53,1.22,0.06,-10.37,4.89,7.39,32.29
6967,-0.55,1.22,0.03,-14.55,2.92,18.44,32.34
6977,-0.55,1.24,0.02,-18.41,1.05,29.13,32.44
6987,-0.51,1.23,-0.02,-24.35,-2.37,36.82,32.44
6997,-0.48,1.22,-0.04,-31.76,-5.07,41.74,32.34
7007,-0.45,1.20,-0.03,-40.56,-7.42,43.16,32.34
7017,-0.44,1.17,-0.03,-49.62,-10.38,42.66,32.44
7027,-0.44,1.17,-0.02,-57.04,-13.68,43.59,32.34
7037,-0.44,1.16,0.01,-61.92,-17.16,47.37,32.44
7047,-0.43,1.13,0.03,-65.77,-17.98,53.21,32.44
7057,-0.41,1.09,0.06,-65.86,-17.13,60.66,32.29
7067,-0.38,1.06,0.09,-65.45,-14.87,68.63,32.44
7077,-0.32,1.03,0.12,-65.92,-14.15,75.40,32.44
7087,-0.24,1.01,0.14,-68.76,-12.75,78.58,32.39
7097,-0.18,0.98,0.18,-72.37,-14.96,78.61,32.39
7107,-0.11,0.96,0.21,-73.51,-17.27,75.30,32.39
7117,-0.05,0.96,0.21,-75.15,-18.35,69.48,32.39
7127,0.03,0.95,0.22,-77.42,-18.95,62.46,32.39
7137,0.10,0.94,0.23,-78.18,-17.16,54.15,32.39
7147,0.16,0.92,0.24,-75.18,-9.19,44.78,32.48
7157,0.19,0.91,0.27,-71.02,5.53,36.90,32.39
7167,0.16,0.90,0.33,-66.14,22.84,31.28,32.39
7177,0.09,0.90,0.41,-59.48,33.27,28.95,32.39
7187,0.03,0.91,0.44,-48.12,38.89,29.25,32.39
7197,-0.02,0.91,0.43,-42.78,39.62,31.27,32.44
7207,-0.03,0.93,0.40,-43.86,38.03,33.42,32.34
7217,-0.01,0.95,0.34,-46.75,35.16,33.71,32.44
7227,-0.04,0.95,0.37,-58.43,25.68,33.57,32.44
7237,-0.06,0.92,0.37,-69.54,13.73,32.41,32.44
7247,-0.05,0.88,0.39,-77.36,3.27,33.92,32.34
7257,-0.00,0.81,0.41,-81.74,-2.03,35.31,32.34
7267,-0.00,0.79,0.44,-80.02,-6.96,39.21,32.39
7277,0.05,0.73,0.44,-77.04,-3.76,40.90,32.44
7287,0.06,0.68,0.49,-73.97,-3.27,41.86,32.34
7297,0.06,0.60,0.55,-64.43,-0.82,43.11,32.39
7307,0.09,0.60,0.52,-55.42,6.95,44.21,32.29
7317,0.10,0.65,0.42,-50.95,14.31,44.40,32.39
7327,0.13,0.67,0.35,-53.42,18.70,43.83,32.39
7337,0.16,0.66,0.27,-59.91,21.60,42.38,32.29
7347,0.17,0.63,0.21,-67.88,28.67,40.31,32.39
7357,0.14,0.58,0.22,-75.11,34.52,36.85,32.39
7367,0.11,0.53,0.23,-80.17,37.31,34.31,32.39
7377,0.06,0.47,0.23,-87.19,40.27,30.98,32.39
7387,0.04,0.45,0.23,-98.18,41.85,28.21,32.34
7397,0.04,0.47,0.28,-110.84,40.38,24.84,32.34
7407,0.05,0.44,0.32,-117.85,41.95,21.22,32.44
7417,0.05,0.44,0.40,-121.24,47.66,17.08,32.34
7427,0.02,0.44,0.47,-123.80,54.24,14.26,32.34
7437,-0.01,0.45,0.53,-125.10,62.32,14.14,32.25
7447,-0.03,0.43,0.64,-121.24,67.95,14.18,32.34
7457,-0.03,0.38,0.71,-115.01,71.54,12.44,32.44
7467,-0.05,0.36,0.76,-109.98,69.45,10.34,32.34
7477,-0.08,0.38,0.79,-108.34,63.95,8.05,32.29
7487,-0.12,0.38,0.80,-109.45,54.96,7.88,32.29
7497,-0.15,0.40,0.78,-112.92,45.25,10.92,32.39
7507,-0.18,0.40,0.80,-114.37,30.87,16.50,32.39
7517,-0.17,0.40,0.80,-112.70,19.37,21.86,32.39
7527,-0.15,0.37,0.82,-108.27,11.15,26.98,32.39
7537,-0.10,0.31,0.76,-108.17,-0.76,33.42,32.29
7547,-0.08,0.32,0.73,-112.00,-6.11,40.52,32.39
7557,-0.04,0.30,0.77,-116.79,-12.31,47.36,32.39
7567,0.02,0.26,0.78,-114.15,-10.85,51.63,32.39
7577,0.06,0.24,0.81,-105.56,-7.19,55.89,32.34
7587,0.12,0.20,0.81,-95.44,0.08,58.05,32.34
7597,0.19,0.14,0.80,-88.85,8.98,53.16,32.34
7607,0.28,0.08,0.81,-84.21,14.27,39.74,32.34
7617,0.40,0.07,0.75,-85.97,28.58,21.40,32.34
7627,0.42,0.05,0.73,-91.04,43.24,2.44,32.44
7637,0.32,0.07,0.77,-99.86,61.95,-10.67,32.34
7647,0.14,0.09,0.87,-108.05,70.37,-14.78,32.39
7657,-0.01,0.11,0.98,-107.28,67.63,-11.98,32.44
7667,-0.09,0.09,1.10,-98.14,50.18,-8.60,32.34
7677,-0.11,0.09,1.12,-87.21,10.63,-7.56,32.34
7687,-0.10,0.09,1.11,-82.38,-33.19,-6.99,32.39
7697,0.02,0.07,1.06,-75.97,-65.51,-8.87,32.39
7707,0.17,0.05,0.95,-74.82,-79.01,-8.18,32.29
7717,0.27,0.08,0.90,-79.11,-67.83,-5.48,32.29
7727,0.29,0.06,0.93,-82.47,-47.02,-1.36,32.39
7737,0.27,0.05,0.99,-76.26,-28.98,2.17,32.39
7747,0.24,0.06,1.02,-63.04,-19.56,3.86,32.29
7757,0.23,0.11,0.94,-55.73,-10.90,3.69,32.39
7767,0.20,0.18,0.88,-58.29,-0.79,4.56,32.29
7777,0.15,0.20,0.89,-65.66,11.62,8.24,32.29
7787,0.10,0.17,0.93,-72.24,22.75,11.74,32.44
7797,0.05,0.13,1.00,-76.03,27.44,12.21,32.44
7807,-0.03,0.11,1.06,-78.40,26.78,14.35,32.34
7817,-0.07,0.11,1.07,-77.07,23.89,19.11,32.34
7827,-0.07,0.10,1.06,-71.13,24.52,26.98,32.34
7837,-0.04,0.09,1.02,-72.00,33.05,34.26,32.44
7847,-0.00,0.06,1.01,-74.95,42.99,39.62,32.34
7857,0.02,0.00,1.04,-77.02,48.21,39.07,32.39
7867,0.05,-0.04,1.07,-77.34,45.59,33.57,32.34
7877,0.06,-0.05,1.04,-80.00,44.60,28.41,32.34
7887,0.07,-0.03,1.01,-86.05,45.02,25.37,32.39
7897,0.07,-0.05,1.03,-92.38,45.11,22.50,32.39
7907,-0.02,-0.08,1.08,-96.75,40.67,19.51,32.39
7917,-0.05,-0.10,1.12,-95.62,35.42,20.20,32.39
7927,-0.09,-0.15,1.18,-88.50,21.86,20.09,32.39
7937,-0.10,-0.16,1.16,-82.47,7.80,20.96,32.29
7947,-0.07,-0.16,1.08,-80.15,-3.34,21.89,32.29
7957,-0.00,-0.17,1.04,-81.37,-9.85,20.76,32.29
7967,0.04,-0.18,0.99,-85.16,-8.21,19.74,32.29
7977,0.07,-0.19,0.99,-88.58,-1.50,18.72,32.39
7987,0.04,-0.19,1.02,-90.08,2.76,16.15,32.39
7997,0.02,-0.20,1.06,-90.15,3.57,16.20,32.44
8007,0.00,-0.22,1.07,-86.87,4.49,18.69,32.34
8017,-0.02,-0.25,1.09,-84.05,4.29,20.26,32.44
8027,0.01,-0.30,1.14,-78.24,1.80,19.60,32.44
8037,0.02,-0.32,1.17,-73.15,-5.01,17.71,32.34
8047,0.03,-0.33,1.16,-70.05,-5.98,14.02,32.34
8057,0.01,-0.31,1.13,-66.11,-6.24,12.23,32.34
8067,0.02,-0.27,1.05,-64.06,-2.53,12.12,32.29
8077,0.03,-0.26,1.03,-67.08,1.95,12.67,32.34
8087,0.05,-0.29,1.02,-67.33,8.09,12.60,32.34
8097,0.05,-0.33,1.06,-68.61,9.18,11.83,32.39
8107,0.04,-0.37,1.11,-66.50,5.34,10.23,32.39
8117,0.06,-0.41,1.16,-61.65,1.85,5.37,32.39
8127,0.05,-0.41,1.13,-57.21,-0.84,2.85,32.39
8137,0.02,-0.37,1.11,-56.47,0.05,1.60,32.39
8147,0.00,-0.35,1.10,-55.59,1.86,1.91,32.48
8157,-0.00,-0.34,1.09,-56.96,5.48,2.44,32.39
8167,-0.00,-0.34,1.09,-58.26,8.90,4.08,32.48
8177,0.00,-0.36,1.11,-56.21,9.57,5.48,32.29
8187,0.02,-0.41,1.11,-53.94,8.78,5.51,32.39
8197,0.05,-0.44,1.12,-53.16,10.73,4.09,32.39
8207,0.05,-0.45,1.14,-52.85,11.36,1.08,32.34
8217,0.02,-0.45,1.15,-49.37,7.63,-2.12,32.44
8227,-0.01,-0.42,1.16,-46.95,0.67,-2.79,32.34
8237,-0.05,-0.39,1.14,-46.55,-5.94,-0.84,32.34
8247,-0.08,-0.41,1.16,-43.37,-10.41,3.53,32.34
8257,-0.07,-0.48,1.15,-32.17,-5.79,9.80,32.34
8267,-0.04,-0.48,1.13,-18.67,10.66,16.56,32.34
8277,0.02,-0.50,1.11,-7.04,31.71,22.79,32.39
8287,0.02,-0.49,1.14,-0.98,42.72,23.10,32.34
8297,0.01,-0.47,1.20,-5.94,27.31,10.09,32.44
8307,-0.02,-0.43,1.14,-15.33,-6.29,-4.66,32.34
8317,-0.06,-0.36,1.12,-22.58,-27.62,-9.34,32.39
8327,-0.05,-0.26,1.01,-27.40,-36.75,-4.72,32.29
8337,-0.04,-0.22,0.94,-40.37,-30.78,1.56,32.39
8347,0.04,-0.33,0.97,-47.44,-26.85,8.40,32.39
8357,0.14,-0.50,1.06,-44.06,-17.40,8.00,32.39
8367,0.21,-0.62,1.15,-33.56,-0.58,1.19,32.29
8377,0.15,-0.63,1.21,-23.83,18.38,-5.27,32.29
8387,0.05,-0.54,1.25,-17.39,25.37,-8.67,32.39
8397,-0.07,-0.46,1.22,-12.38,13.71,-10.17,32.39
8407,-0.13,-0.38,1.15,-13.76,-3.27,-9.62,32.39
8417,-0.11,-0.31,1.02,-19.48,-16.20,-5.25,32.48
8427,-0.05,-0.28,0.92,-30.24,-16.84,-1.04,32.34
8437,0.00,-0.30,0.84,-41.56,-10.44,5.31,32.44
8447,0.07,-0.42,0.90,-45.56,-2.76,7.36,32.34
8457,0.15,-0.56,0.96,-44.89,2.75,2.73,32.44
8467,0.18,-0.64,1.01,-41.63,5.53,-5.48,32.44
8477,0.16,-0.62,1.03,-37.47,10.70,-13.15,32.34
8487,0.09,-0.56,1.03,-33.19,17.50,-16.12,32.44
8497,-0.01,-0.52,1.03,-31.45,21.83,-15.62,32.34
8507,-0.09,-0.46,1.03,-34.95,21.45,-13.18,32.34
8517,-0.16,-0.44,1.07,-38.12,12.41,-8.38,32.44
8527,-0.14,-0.47,1.09,-39.79,3.60,-2.82,32.39
8537,-0.11,-0.49,1.11,-41.59,-2.53,1.01,32.29
8547,-0.06,-0.55,1.18,-34.78,-4.75,3.77,32.39
8557,-0.00,-0.59,1.22,-29.57,-3.28,3.82,32.39
8567,0.04,-0.61,1.28,-22.85,-0.53,2.06,32.29
8577,0.05,-0.57,1.29,-16.35,-0.17,-1.31,32.29
8587,0.02,-0.53,1.27,-14.00,-2.18,-4.26,32.39
8597,-0.01,-0.50,1.23,-14.84,-2.21,-4.56,32.29
8607,-0.04,-0.48,1.22,-16.55,-3.24,-2.96,32.29
8617,-0.04,-0.49,1.21,-17.62,0.15,-0.24,32.48
8627,-0.03,-0.51,1.22,-16.17,1.97,0.69,32.44
8637,-0.03,-0.55,1.23,-12.96,3.05,0.64,32.44
8647,-0.03,-0.53,1.21,-9.30,-2.46,-1.01,32.44
8657,-0.05,-0.52,1.18,-7.36,-6.92,-1.89,32.44
8667,-0.05,-0.51,1.15,-6.15,-9.63,-0.52,32.34
8677,-0.03,-0.51,1.14,-3.42,-7.85,1.66,32.34
8687,0.01,-0.52,1.12,-1.37,-3.66,2.47,32.34
8697,0.03,-0.54,1.09,0.18,1.44,3.48,32.39
8707,0.04,-0.54,1.09,1.36,8.14,3.21,32.34
8717,0.02,-0.53,1.08,2.50,10.95,4.14,32.44
8727,-0.00,-0.52,1.07,3.07,11.13,5.24,32.44
8737,-0.02,-0.52,1.05,4.99,8.73,6.02,32.29
8747,-0.02,-0.52,1.05,6.20,1.74,5.07,32.39
8757,-0.02,-0.51,0.99,6.50,-4.66,3.63,32.39
8767,0.00,-0.46,0.91,4.49,-5.56,4.32,32.39
8777,0.02,-0.46,0.89,1.97,-4.12,5.40,32.39
8787,0.04,-0.48,0.89,2.11,-0.95,5.28,32.29
8797,0.04,-0.49,0.92,3.30,-1.18,4.20,32.39
8807,0.04,-0.49,0.93,5.50,-1.51,3.66,32.39
8817,0.04,-0.49,0.91,7.62,0.49,4.27,32.39
8827,0.04,-0.48,0.92,7.51,3.11,4.21,32.39
8837,0.02,-0.47,0.94,6.34,2.85,3.22,32.39
8847,-0.01,-0.45,0.93,3.92,1.15,3.02,32.44
8857,-0.04,-0.44,0.93,-0.31,-0.75,3.57,32.44
8867,-0.03,-0.46,0.96,-3.34,-2.31,5.21,32.44
8877,-0.01,-0.47,0.97,-3.74,-0.35,5.89,32.44
8887,-0.02,-0.47,1.00,-2.34,2.14,7.54,32.34
8897,0.01,-0.46,1.00,0.43,6.93,9.40,32.34
8907,0.02,-0.47,1.03,1.33,10.17,9.88,32.34
8917,0.03,-0.47,1.04,3.66,10.79,9.44,32.44
8927,0.01,-0.47,1.05,4.99,7.56,7.82,32.34
8937,0.00,-0.46,1.03,4.92,2.66,6.24,32.44
8947,0.00,-0.46,1.01,3.80,-3.13,4.87,32.39
8957,0.01,-0.46,0.97,3.02,-5.42,5.08,32.39
8967,0.03,-0.44,0.93,1.40,-4.44,5.63,32.29
8977,0.05,-0.42,0.90,-0.44,0.46,5.36,32.29
8987,0.05,-0.44,0.89,-3.53,2.27,4.93,32.39
8997,0.05,-0.44,0.90,-6.17,5.60,3.57,32.39
9007,0.04,-0.46,0.94,-6.64,4.85,3.89,32.29
9017,0.03,-0.49,0.97,-5.33,6.00,4.08,32.29
9027,0.02,-0.49,1.02,-1.53,6.37,3.83,32.29
9037,0.01,-0.47,1.03,0.75,5.05,4.26,32.29
9047,0.02,-0.46,1.01,1.80,4.96,4.64,32.39
9057,0.01,-0.47,1.01,3.98,6.46,5.02,32.39
9067,0.01,-0.49,1.03,7.68,6.35,5.54,32.44
9077,0.01,-0.48,1.01,10.14,6.32,5.25,32.34
9087,0.01,-0.45,0.99,12.44,4.18,4.09,32.34
9097,0.00,-0.45,0.96,12.55,2.55,5.53,32.34
9107,-0.00,-0.44,0.93,10.14,2.43,5.89,32.34
9117,-0.01,-0.44,0.94,9.10,5.25,4.99,32.34
9127,-0.02,-0.45,0.94,8.24,1.62,5.02,32.25
9137,-0.05,-0.46,0.93,6.27,-5.48,3.74,32.34
9147,-0.02,-0.47,0.93,5.62,-10.24,1.73,32.34
9157,0.02,-0.44,0.89,5.31,-8.63,0.66,32.39
9167,0.03,-0.41,0.90,5.36,1.95,0.96,32.44
9177,0.01,-0.42,0.89,2.56,5.60,2.56,32.34
9187,0.00,-0.43,0.93,-2.44,9.86,4.37,32.29
9197,-0.01,-0.44,0.98,-6.05,8.35,4.84,32.39
9207,-0.01,-0.49,1.04,-6.84,3.44,5.66,32.39
9217,-0.02,-0.54,1.08,-6.75,-5.25,3.83,32.39
9227,0.01,-0.53,1.09,-2.95,-4.18,-0.43,32.39
9237,0.01,-0.49,1.06,1.08,2.02,-3.82,32.29
9247,-0.02,-0.48,1.07,2.49,9.85,-6.31,32.29
9257,-0.02,-0.41,1.01,1.73,23.89,-8.15,32.29
9267,-0.06,-0.35,1.03,2.72,40.09,-5.60,32.39
9277,-0.09,-0.34,1.09,3.37,52.75,-2.50,32.44
9287,-0.13,-0.38,1.17,4.63,53.47,-0.08,32.34
9297,-0.15,-0.43,1.24,7.57,48.29,1.30,32.25
9307,-0.18,-0.44,1.28,13.56,37.01,2.73,32.44
9317,-0.19,-0.45,1.27,19.86,25.40,5.22,32.44
9327,-0.17,-0.46,1.24,25.88,20.31,7.86,32.34
9337,-0.16,-0.47,1.18,30.31,12.20,10.87,32.44
9347,-0.12,-0.46,1.10,32.64,7.42,13.13,32.44
9357,-0.04,-0.45,1.02,33.50,7.50,13.31,32.34
9367,0.01,-0.42,0.96,31.24,12.08,12.18,32.39
9377,0.03,-0.39,0.91,26.64,18.26,10.15,32.48
9387,0.02,-0.37,0.90,20.03,23.28,8.27,32.39
9397,-0.01,-0.36,0.92,13.54,24.06,6.12,32.39
9407,-0.06,-0.37,0.96,8.93,19.85,4.96,32.39
9417,-0.10,-0.39,1.00,7.45,13.60,4.85,32.39
9427,-0.11,-0.42,1.03,8.05,6.95,5.83,32.39
9437,-0.10,-0.42,1.04,10.69,3.30,7.24,32.39
9447,-0.09,-0.42,1.03,12.90,-0.29,8.44,32.39
9457,-0.08,-0.40,1.02,14.66,-1.68,8.37,32.34
9467,-0.08,-0.37,0.98,15.48,-3.11,9.04,32.34
9477,-0.05,-0.36,0.94,14.56,-1.04,9.68,32.44
9487,-0.02,-0.37,0.92,12.50,1.66,9.27,32.34
9497,-0.03,-0.39,0.92,9.74,4.47,7.16,32.44
9507,-0.05,-0.40,0.93,8.61,5.60,5.79,32.34
9517,-0.07,-0.40,0.94,9.24,6.23,4.87,32.34
9527,-0.13,-0.43,0.95,11.16,5.04,5.69,32.34
9537,-0.17,-0.45,0.95,11.27,0.14,8.41,32.29
9547,-0.19,-0.44,0.94,12.32,-8.31,12.70,32.39
9557,-0.19,-0.43,0.88,13.69,-18.49,19.04,32.39
9567,-0.15,-0.41,0.78,10.61,-27.56,27.66,32.39
9577,-0.05,-0.40,0.72,5.83,-34.05,35.97,32.39
9587,0.09,-0.42,0.68,-0.69,-36.99,38.60,32.29
9597,0.21,-0.42,0.72,-8.11,-38.60,32.11,32.39
9607,0.27,-0.41,0.73,-19.30,-36.92,19.07,32.39
9617,0.22,-0.35,0.80,-31.02,-25.47,8.58,32.39
9627,0.14,-0.34,0.89,-36.35,-12.79,3.07,32.39
9637,0.03,-0.36,1.01,-34.60,-2.56,-0.37,32.29
9647,-0.06,-0.37,1.10,-26.73,2.37,-1.01,32.39
9657,-0.13,-0.33,1.15,-17.63,6.63,0.21,32.44
9667,-0.17,-0.28,1.14,-12.15,11.85,1.94,32.25
9677,-0.22,-0.28,1.15,-9.13,12.90,3.62,32.34
9687,-0.24,-0.28,1.16,-5.30,11.05,6.03,32.44
9697,-0.24,-0.26,1.15,-2.79,9.59,6.52,32.25
9707,-0.23,-0.26,1.14,-2.90,7.27,7.76,32.34
9717,-0.23,-0.28,1.16,-2.09,4.11,9.83,32.34
9727,-0.23,-0.29,1.18,0.67,-0.14,12.99,32.44
9737,-0.17,-0.32,1.18,5.04,-5.89,14.98,32.44
9747,-0.11,-0.35,1.14,9.44,-9.76,14.81,32.39
9757,-0.07,-0.37,1.08,12.47,-12.14,13.07,32.29
9767,-0.03,-0.36,1.02,14.72,-11.71,12.70,32.29
9777,0.01,-0.35,0.95,15.07,-8.50,11.94,32.39
9787,0.02,-0.35,0.93,14.24,-7.04,10.06,32.39
9797,0.05,-0.35,0.91,12.70,-5.76,6.90,32.29
9807,0.06,-0.34,0.88,10.66,-2.32,4.09,32.39
