Millis,Acce_X,Acce_Y,Acce_Z,Gyro_X,Gyro_Y,Gyro_Z,Temp
47297,0.11,-0.51,0.81,-41.42,-0.29,7.53,30.41
47307,0.11,-0.52,0.80,-43.51,1.86,7.22,30.51
47317,0.10,-0.53,0.79,-46.47,2.64,7.65,30.51
47327,0.10,-0.53,0.78,-49.76,3.10,7.85,30.46
47337,0.09,-0.54,0.80,-53.50,0.67,7.37,30.37
47347,0.08,-0.56,0.82,-54.73,-2.24,6.70,30.46
47357,0.08,-0.56,0.81,-55.63,-4.52,7.91,30.55
47367,0.07,-0.56,0.81,-56.75,-4.17,9.28,30.46
47377,0.06,-0.56,0.81,-59.21,-4.69,10.37,30.37
47387,0.07,-0.58,0.82,-62.17,-5.83,11.16,30.41
47397,0.07,-0.59,0.85,-66.32,-9.86,10.92,30.51
47407,0.07,-0.60,0.86,-70.60,-14.46,10.43,30.51
47417,0.05,-0.57,0.85,-75.69,-18.76,12.31,30.51
47427,0.04,-0.56,0.86,-84.12,-23.88,14.06,30.51
47437,-0.02,-0.56,0.89,-97.28,-36.11,14.92,30.51
47447,-0.08,-0.61,0.96,-113.11,-48.41,18.05,30.51
47457,-0.12,-0.69,1.06,-117.95,-62.05,22.79,30.46
47467,-0.19,-0.77,1.21,-112.17,-71.51,30.31,30.46
47477,-0.21,-0.81,1.28,-98.02,-75.83,43.94,30.37
47487,-0.18,-0.80,1.30,-81.25,-76.92,57.40,30.46
47497,-0.05,-0.79,1.27,-61.68,-74.12,66.08,30.46
47507,0.13,-0.78,1.20,-44.29,-58.81,68.64,30.46
47517,0.28,-0.77,1.12,-39.73,-39.34,64.46,30.37
47527,0.39,-0.79,1.13,-42.75,-17.37,57.31,30.51
47537,0.40,-0.86,1.26,-49.05,-1.74,48.11,30.41
47547,0.38,-0.92,1.44,-50.76,-2.40,36.21,30.51
47557,0.37,-0.97,1.56,-44.11,-9.27,25.79,30.51
47567,0.39,-1.02,1.65,-29.68,-14.95,18.26,30.32
47577,0.44,-1.05,1.70,-11.97,-22.66,10.75,30.41
47587,0.48,-1.08,1.68,4.72,-27.04,2.41,30.46
47597,0.54,-1.08,1.64,18.37,-25.10,-6.66,30.46
47607,0.56,-1.05,1.58,29.40,-16.76,-16.81,30.46
47617,0.54,-1.03,1.54,37.80,-6.63,-24.29,30.55
47627,0.47,-1.01,1.52,44.75,0.63,-30.03,30.46
47637,0.40,-0.99,1.50,49.71,1.05,-35.48,30.37
47647,0.33,-0.97,1.48,53.71,-2.38,-38.08,30.37
47657,0.29,-0.96,1.49,56.31,-8.95,-38.89,30.41
47667,0.28,-1.00,1.50,61.47,-11.73,-40.73,30.41
47677,0.26,-1.02,1.52,66.47,-16.00,-42.18,30.41
47687,0.26,-1.04,1.52,74.56,-20.46,-44.58,30.41
47697,0.26,-1.06,1.50,83.62,-23.53,-46.35,30.51
47707,0.25,-1.08,1.48,91.15,-23.92,-47.40,30.51
47717,0.24,-1.11,1.48,99.68,-20.67,-47.01,30.37
47727,0.25,-1.11,1.43,106.84,-15.69,-46.99,30.37
47737,0.24,-1.09,1.38,112.18,-11.68,-48.98,30.46
47747,0.22,-1.10,1.37,115.30,-10.92,-52.32,30.46
47757,0.19,-1.10,1.35,118.64,-10.93,-54.82,30.46
47767,0.17,-1.09,1.35,124.41,-9.07,-55.66,30.46
47777,0.12,-1.07,1.34,130.92,-7.76,-55.36,30.46
47787,0.10,-1.05,1.32,137.42,-8.49,-53.30,30.37
47797,0.08,-0.99,1.27,139.76,-7.95,-51.04,30.41
47807,0.08,-0.95,1.25,137.37,-8.49,-48.46,30.51
47817,0.09,-0.91,1.20,136.96,-4.14,-43.44,30.41
47827,0.09,-0.89,1.19,133.98,3.95,-37.19,30.32
47837,0.10,-0.90,1.20,133.42,13.71,-30.40,30.41
47847,0.09,-0.93,1.25,133.71,16.90,-26.31,30.46
47857,0.10,-0.93,1.24,135.44,15.57,-25.85,30.46
47867,0.08,-0.93,1.23,137.56,4.26,-26.78,30.46
47877,0.09,-0.91,1.19,142.46,-12.32,-29.01,30.55
47887,0.10,-0.88,1.10,148.89,-25.94,-32.55,30.46
47897,0.15,-0.84,1.01,154.52,-35.80,-35.77,30.37
47907,0.19,-0.80,0.87,157.44,-36.75,-37.10,30.46
47917,0.22,-0.76,0.77,153.01,-30.49,-38.56,30.46
47927,0.27,-0.71,0.70,144.67,-16.24,-41.45,30.41
47937,0.27,-0.69,0.66,134.15,2.47,-46.55,30.41
47947,0.21,-0.64,0.67,128.99,16.03,-48.93,30.32
47957,0.14,-0.61,0.71,125.05,28.49,-47.27,30.41
47967,0.09,-0.58,0.75,123.63,31.48,-45.97,30.41
47977,0.03,-0.56,0.82,123.71,31.10,-44.06,30.37
47987,-0.04,-0.53,0.89,122.66,23.10,-41.48,30.41
47997,-0.09,-0.49,0.89,122.49,15.42,-35.34,30.37
48007,-0.09,-0.46,0.91,126.93,8.79,-27.97,30.37
48017,-0.07,-0.45,0.86,132.90,12.41,-19.18,30.46
48027,-0.03,-0.42,0.80,135.45,16.11,-10.00,30.37
48037,0.01,-0.40,0.75,134.34,13.74,-1.98,30.37
48047,0.05,-0.39,0.71,126.93,10.21,2.06,30.37
48057,0.08,-0.36,0.65,116.12,5.47,4.23,30.32
48067,0.09,-0.33,0.58,102.09,-1.07,6.05,30.32
48077,0.13,-0.31,0.58,92.70,-0.03,6.26,30.41
48087,0.16,-0.29,0.61,93.65,14.75,8.06,30.41
48097,0.11,-0.27,0.71,105.86,30.02,9.76,30.41
48107,0.05,-0.23,0.75,123.33,40.34,6.55,30.37
48117,0.04,-0.18,0.69,136.52,48.29,-2.53,30.32
48127,-0.03,-0.10,0.67,137.86,45.24,-11.74,30.37
48137,-0.08,0.01,0.59,128.11,29.63,-14.61,30.46
48147,-0.11,0.10,0.57,117.40,20.20,-11.80,30.46
48157,-0.10,0.16,0.55,107.60,19.77,-4.50,30.46
48167,-0.10,0.17,0.56,103.21,16.92,5.36,30.46
48177,-0.07,0.17,0.58,103.73,19.47,14.46,30.37
48187,-0.04,0.17,0.65,103.73,16.90,17.92,30.41
48197,-0.00,0.18,0.66,103.15,12.96,17.69,30.41
48207,0.02,0.16,0.69,100.40,6.95,16.29,30.32
48217,0.03,0.16,0.74,101.21,-0.61,13.51,30.32
48227,0.03,0.17,0.74,101.86,-6.50,9.88,30.41
48237,0.02,0.22,0.71,103.98,-13.31,8.40,30.37
48247,0.00,0.29,0.68,103.50,-18.99,8.70,30.37
48257,-0.04,0.32,0.68,99.47,-19.97,14.63,30.37
48267,-0.06,0.36,0.70,96.18,-25.59,23.66,30.37
48277,-0.05,0.37,0.67,93.66,-41.45,33.18,30.46
48287,0.02,0.41,0.55,93.21,-56.44,43.28,30.46
48297,0.17,0.43,0.41,96.96,-68.50,53.33,30.46
48307,0.37,0.41,0.27,96.18,-70.21,57.39,30.32
48317,0.51,0.41,0.17,85.59,-64.72,54.75,30.32
48327,0.57,0.36,0.19,72.09,-58.11,46.90,30.41
48337,0.57,0.29,0.32,62.43,-48.44,35.25,30.41
48347,0.58,0.20,0.47,60.02,-41.86,23.66,30.32
48357,0.47,0.22,0.55,62.32,-49.27,14.53,30.41
48367,0.45,0.22,0.61,73.01,-52.44,7.66,30.46
48377,0.43,0.27,0.61,87.50,-51.36,4.02,30.37
48387,0.45,0.36,0.47,95.18,-46.61,3.01,30.27
48397,0.50,0.43,0.35,95.13,-39.40,1.62,30.27
48407,0.56,0.47,0.25,89.91,-29.42,-1.19,30.37
48417,0.56,0.49,0.21,79.83,-11.71,-5.98,30.27
48427,0.55,0.50,0.24,73.05,6.75,-9.01,30.41
48437,0.51,0.46,0.31,75.40,20.63,-12.02,30.32
48447,0.45,0.43,0.38,77.07,21.15,-19.47,30.41
48457,0.45,0.43,0.36,81.10,23.13,-25.88,30.32
48467,0.44,0.50,0.32,87.18,34.56,-29.50,30.32
48477,0.43,0.57,0.34,93.21,52.44,-32.27,30.41
48487,0.41,0.65,0.30,99.47,72.37,-37.16,30.27
48497,0.34,0.66,0.34,95.34,80.40,-47.08,30.37
48507,0.22,0.63,0.41,87.85,77.60,-58.55,30.37
48517,0.12,0.64,0.48,81.88,70.76,-66.06,30.37
48527,-0.00,0.67,0.56,78.55,59.57,-67.69,30.37
48537,-0.08,0.75,0.60,82.44,44.14,-61.85,30.37
48547,-0.09,0.82,0.58,91.42,30.35,-54.84,30.32
48557,-0.09,0.92,0.48,98.67,22.53,-50.73,30.32
48567,-0.08,0.96,0.38,100.03,18.55,-46.93,30.51
48577,-0.15,1.00,0.33,88.44,-0.58,-44.35,30.22
48587,-0.17,0.96,0.37,72.87,-9.37,-40.27,30.37
48597,-0.19,0.86,0.51,62.67,-28.32,-33.66,30.41
48607,-0.11,0.84,0.53,66.40,-36.24,-27.24,30.27
48617,-0.01,0.83,0.51,78.18,-34.72,-22.79,30.37
48627,0.06,0.84,0.44,88.96,-30.14,-19.73,30.46
48637,0.08,0.90,0.33,92.99,-22.90,-18.24,30.37
48647,0.09,0.91,0.26,93.11,-15.36,-15.47,30.37
48657,0.05,0.92,0.25,88.70,-12.87,-13.08,30.46
48667,0.02,0.93,0.23,80.72,-16.70,-10.31,30.32
48677,0.01,0.90,0.23,73.62,-25.45,-7.54,30.32
48687,0.04,0.85,0.26,68.02,-37.80,-4.55,30.41
48697,0.09,0.82,0.30,70.49,-48.43,-1.37,30.41
48707,0.18,0.79,0.30,75.85,-54.73,3.54,30.41
48717,0.30,0.82,0.21,83.60,-48.17,6.99,30.27
48727,0.39,0.86,0.11,92.15,-36.27,6.12,30.37
48737,0.41,0.87,0.04,93.53,-23.69,1.54,30.37
48747,0.42,0.90,-0.00,87.33,-10.32,-3.51,30.37
48757,0.38,0.89,0.05,77.77,-1.83,-10.81,30.37
48767,0.29,0.90,0.10,72.58,2.14,-16.63,30.37
48777,0.22,0.93,0.09,70.75,1.10,-17.77,30.37
48787,0.15,0.95,0.09,69.73,-3.60,-17.74,30.37
48797,0.10,0.94,0.08,68.15,-10.41,-15.37,30.41
48807,0.09,0.93,0.07,64.24,-19.31,-12.29,30.41
48817,0.12,0.90,0.06,59.42,-23.86,-8.32,30.32
48827,0.17,0.86,0.07,54.69,-27.37,-7.98,30.41
48837,0.26,0.83,0.10,51.37,-30.66,-11.28,30.32
48847,0.33,0.82,0.06,52.99,-28.43,-17.28,30.37
48857,0.38,0.85,-0.02,57.76,-16.41,-22.47,30.37
48867,0.35,0.86,-0.02,62.92,-1.86,-25.86,30.46
48877,0.25,0.86,0.01,67.62,7.63,-27.25,30.37
48887,0.16,0.87,-0.05,69.85,12.50,-25.02,30.27
48897,0.06,0.87,-0.03,69.39,5.60,-20.20,30.27
48907,0.01,0.85,-0.01,67.04,-10.73,-13.76,30.46
48917,0.03,0.85,-0.03,66.50,-26.11,-8.08,30.37
48927,0.07,0.84,-0.08,66.98,-38.56,-3.66,30.32
48937,0.12,0.85,-0.12,65.28,-44.70,-3.63,30.32
48947,0.24,0.84,-0.17,64.46,-41.82,-7.79,30.32
48957,0.30,0.81,-0.24,59.05,-38.69,-19.27,30.32
48967,0.30,0.79,-0.25,54.85,-25.66,-31.07,30.32
48977,0.23,0.73,-0.21,57.24,-21.69,-39.77,30.37
48987,0.14,0.71,-0.18,60.20,-27.83,-44.64,30.37
48997,0.09,0.73,-0.23,64.41,-29.60,-45.31,30.37
49007,-0.01,0.78,-0.22,67.25,-36.56,-41.31,30.37
49017,-0.11,0.81,-0.21,64.21,-50.44,-30.73,30.37
49027,-0.15,0.82,-0.24,59.02,-69.11,-15.68,30.37
49037,-0.14,0.78,-0.27,53.63,-88.69,-0.92,30.32
49047,-0.05,0.73,-0.32,48.60,-97.50,14.92,30.41
49057,0.05,0.63,-0.35,47.19,-103.59,25.07,30.41
49067,0.16,0.62,-0.34,51.34,-103.54,22.32,30.41
49077,0.28,0.58,-0.35,50.08,-104.98,6.46,30.32
49087,0.32,0.58,-0.29,50.41,-104.69,-21.04,30.41
49097,0.30,0.62,-0.30,52.70,-103.69,-55.21,30.37
49107,0.22,0.74,-0.38,56.53,-93.47,-85.45,30.27
49117,0.09,0.87,-0.43,60.31,-79.83,-102.17,30.37
49127,-0.07,0.94,-0.41,60.44,-65.57,-105.77,30.37
49137,-0.23,1.00,-0.39,61.54,-55.50,-100.31,30.46
49147,-0.35,1.08,-0.35,64.47,-46.67,-90.99,30.46
49157,-0.41,1.14,-0.35,64.02,-48.96,-78.79,30.27
49167,-0.44,1.18,-0.37,54.92,-60.02,-67.94,30.32
49177,-0.42,1.19,-0.38,43.11,-72.08,-59.13,30.32
49187,-0.35,1.14,-0.41,32.37,-79.16,-53.07,30.32
49197,-0.26,1.11,-0.39,22.49,-82.18,-51.56,30.41
49207,-0.19,1.07,-0.41,15.50,-77.27,-56.00,30.32
49217,-0.14,1.03,-0.39,15.85,-68.49,-64.20,30.41
49227,-0.12,0.99,-0.41,22.89,-51.10,-71.42,30.37
49237,-0.16,1.02,-0.41,34.43,-29.92,-77.02,30.46
49247,-0.28,1.02,-0.41,46.95,-12.85,-79.33,30.37
49257,-0.38,1.06,-0.45,57.13,4.03,-77.31,30.27
49267,-0.48,1.11,-0.49,61.30,13.36,-73.97,30.37
49277,-0.55,1.16,-0.53,57.33,13.24,-70.53,30.37
49287,-0.61,1.21,-0.57,47.74,5.48,-66.85,30.37
49297,-0.64,1.24,-0.62,35.33,-5.59,-62.11,30.41
49307,-0.65,1.24,-0.63,24.85,-12.76,-55.08,30.41
49317,-0.65,1.22,-0.63,15.28,-14.92,-45.24,30.32
49327,-0.63,1.16,-0.60,8.60,-14.46,-31.80,30.41
49337,-0.57,1.10,-0.55,4.72,-7.85,-17.62,30.32
49347,-0.49,1.04,-0.54,6.43,0.85,-5.66,30.32
49357,-0.38,0.99,-0.53,8.09,13.62,0.27,30.41
49367,-0.32,0.94,-0.51,8.99,22.29,-0.02,30.37
49377,-0.30,0.89,-0.49,9.37,27.01,-4.63,30.37
49387,-0.31,0.87,-0.45,7.74,27.15,-9.42,30.27
49397,-0.33,0.85,-0.43,6.03,25.42,-12.53,30.37
49407,-0.36,0.86,-0.43,3.68,22.09,-14.70,30.27
49417,-0.37,0.87,-0.44,1.02,16.79,-15.16,30.27
49427,-0.38,0.90,-0.48,-2.23,12.84,-15.77,30.32
49437,-0.40,0.91,-0.51,-5.71,10.87,-14.70,30.32
49447,-0.43,0.90,-0.51,-9.98,9.73,-9.86,30.32
49457,-0.45,0.92,-0.48,-14.32,14.87,-3.47,30.32
49467,-0.45,0.92,-0.46,-15.25,17.39,3.42,30.41
49477,-0.44,0.91,-0.46,-15.53,19.74,9.51,30.32
49487,-0.42,0.90,-0.43,-17.83,17.47,12.96,30.37
49497,-0.39,0.88,-0.41,-19.51,14.29,13.74,30.37
49507,-0.37,0.87,-0.40,-20.27,12.06,13.74,30.27
49517,-0.35,0.86,-0.40,-20.50,11.92,14.18,30.37
49527,-0.33,0.86,-0.42,-21.40,14.08,13.53,30.46
49537,-0.33,0.88,-0.42,-22.37,16.41,13.95,30.46
49547,-0.35,0.89,-0.42,-23.11,17.85,14.35,30.41
49557,-0.37,0.88,-0.39,-20.12,20.52,16.99,30.41
49567,-0.39,0.90,-0.38,-13.85,25.45,20.18,30.41
49577,-0.38,0.92,-0.40,-7.47,30.38,21.80,30.41
49587,-0.38,0.94,-0.42,-1.79,34.27,21.59,30.46
49597,-0.40,0.98,-0.46,0.27,34.38,18.98,30.51
49607,-0.45,1.02,-0.53,1.10,33.71,13.28,30.41
49617,-0.55,1.07,-0.59,1.18,29.79,5.01,30.37
49627,-0.64,1.17,-0.67,2.40,26.31,-0.98,30.37
49637,-0.76,1.31,-0.73,4.93,25.89,-1.34,30.37
49647,-0.91,1.39,-0.78,9.45,24.06,8.52,30.37
49657,-1.05,1.44,-0.76,14.70,20.99,26.18,30.37
49667,-1.12,1.45,-0.74,19.77,16.89,48.52,30.37
49677,-1.08,1.41,-0.66,22.09,5.36,66.87,30.41
49687,-0.96,1.35,-0.66,24.63,-8.23,71.95,30.41
49697,-0.75,1.48,-0.85,29.16,-8.06,75.88,30.41
49707,-0.62,1.51,-0.99,16.93,-13.56,84.72,30.41
49717,-0.47,1.43,-1.02,-2.02,-11.31,91.19,30.37
49727,-0.40,1.35,-0.98,-14.81,1.85,97.31,30.41
49737,-0.35,1.28,-0.97,-19.65,19.10,107.86,30.22
49747,-0.31,1.22,-0.94,-28.63,33.16,122.14,30.27
49757,-0.26,1.13,-0.88,-43.24,40.06,134.41,30.46
49767,-0.20,0.98,-0.79,-62.93,36.78,142.90,30.37
49777,-0.14,0.86,-0.72,-87.48,25.04,144.58,30.37
49787,-0.05,0.74,-0.67,-105.01,16.72,143.62,30.46
49797,0.03,0.64,-0.63,-116.66,10.81,142.41,30.46
49807,0.12,0.52,-0.54,-122.18,2.55,141.13,30.41
49817,0.18,0.43,-0.49,-120.11,-3.40,134.56,30.41
49827,0.27,0.37,-0.49,-113.18,-3.05,124.93,30.41
49837,0.26,0.34,-0.45,-106.63,-6.52,114.38,30.32
49847,0.31,0.31,-0.48,-100.03,5.42,104.90,30.37
49857,0.32,0.30,-0.49,-94.26,14.67,97.40,30.32
49867,0.29,0.36,-0.53,-92.18,19.21,88.49,30.22
49877,0.30,0.38,-0.62,-97.47,19.25,77.40,30.37
49887,0.26,0.39,-0.67,-112.50,24.58,68.66,30.27
49897,0.19,0.37,-0.61,-118.98,35.60,67.21,30.37
49907,0.12,0.35,-0.51,-121.19,49.21,70.75,30.27
49917,0.07,0.32,-0.48,-123.42,53.34,72.73,30.37
49927,0.05,0.31,-0.41,-129.89,52.84,73.08,30.37
49937,0.07,0.28,-0.36,-136.72,54.35,72.73,30.32
49947,0.06,0.28,-0.29,-142.79,57.34,72.92,30.41
49957,0.06,0.23,-0.19,-149.34,58.40,70.56,30.32
49967,0.05,0.23,-0.12,-151.98,55.95,68.41,30.41
49977,0.04,0.27,-0.10,-152.08,43.66,69.02,30.46
49987,0.06,0.31,-0.10,-146.35,29.05,73.18,30.32
49997,0.15,0.36,-0.13,-141.44,20.89,78.55,30.37
50007,0.28,0.39,-0.15,-140.99,22.69,78.84,30.27
50017,0.41,0.40,-0.16,-145.45,30.15,74.95,30.37
50027,0.46,0.40,-0.09,-155.07,39.80,66.17,30.37
50037,0.51,0.41,-0.04,-164.41,47.47,55.10,30.46
50047,0.50,0.44,0.03,-169.47,58.05,42.05,30.37
50057,0.43,0.40,0.15,-167.10,68.12,31.42,30.32
50067,0.38,0.39,0.28,-155.50,76.58,24.73,30.32
50077,0.33,0.44,0.33,-142.89,79.47,20.11,30.32
50087,0.31,0.49,0.32,-131.48,80.56,18.84,30.32
50097,0.29,0.54,0.35,-126.11,80.31,19.15,30.32
50107,0.30,0.59,0.31,-126.76,82.15,19.08,30.37
50117,0.29,0.61,0.34,-130.84,86.43,18.17,30.32
50127,0.27,0.58,0.41,-135.34,87.95,16.78,30.46
50137,0.23,0.54,0.49,-138.47,86.47,16.46,30.27
50147,0.22,0.51,0.55,-139.40,83.33,16.98,30.27
50157,0.23,0.51,0.59,-137.15,79.76,18.18,30.27
50167,0.25,0.45,0.61,-133.83,79.57,21.05,30.27
50177,0.27,0.39,0.63,-129.08,87.85,25.94,30.37
50187,0.31,0.31,0.68,-117.86,98.78,31.16,30.27
50197,0.39,0.26,0.65,-104.38,111.59,33.94,30.32
50207,0.49,0.28,0.58,-93.02,132.12,31.28,30.32
50217,0.52,0.30,0.53,-85.02,153.94,20.50,30.32
50227,0.45,0.29,0.59,-87.07,166.38,6.03,30.32
50237,0.34,0.27,0.64,-91.50,171.22,-12.03,30.32
50247,0.17,0.29,0.75,-99.60,164.09,-30.46,30.32
50257,0.01,0.34,0.87,-107.44,142.56,-44.41,30.41
50267,-0.13,0.42,0.96,-109.88,113.48,-51.13,30.27
50277,-0.19,0.48,1.00,-107.48,83.94,-49.45,30.27
50287,-0.24,0.52,1.02,-102.32,57.88,-40.53,30.37
50297,-0.23,0.52,1.03,-95.30,38.29,-27.53,30.37
50307,-0.18,0.52,0.99,-89.89,22.61,-16.35,30.37
50317,-0.05,0.55,0.87,-89.50,19.04,-6.75,30.37
50327,0.07,0.57,0.76,-88.44,17.04,1.79,30.37
50337,0.19,0.54,0.66,-90.99,27.25,6.18,30.22
50347,0.26,0.49,0.66,-99.18,38.79,2.38,30.41
50357,0.29,0.42,0.67,-112.40,51.05,-8.49,30.32
50367,0.20,0.35,0.75,-122.50,65.22,-18.49,30.32
50377,0.08,0.27,0.87,-120.98,75.97,-21.15,30.32
50387,-0.04,0.23,1.04,-110.15,74.35,-18.14,30.41
50397,-0.10,0.26,1.09,-101.76,60.49,-15.31,30.32
50407,-0.10,0.30,1.02,-96.09,42.29,-12.84,30.37
50417,-0.08,0.29,1.01,-96.32,27.22,-11.66,30.37
50427,-0.04,0.28,1.03,-99.98,17.88,-11.73,30.37
50437,-0.05,0.26,1.03,-103.39,12.66,-9.69,30.37
50447,-0.03,0.23,1.08,-105.85,1.54,-9.10,30.27
50457,0.01,0.21,1.08,-105.53,-10.69,-12.98,30.37
50467,0.03,0.19,1.08,-104.75,-23.44,-18.46,30.18
50477,0.05,0.16,1.10,-98.55,-32.27,-22.79,30.32
50487,0.05,0.15,1.09,-87.86,-35.45,-24.26,30.32
50497,0.04,0.18,1.04,-80.67,-38.61,-23.13,30.41
50507,0.05,0.18,1.01,-72.73,-43.42,-19.76,30.32
50517,0.09,0.20,0.86,-66.66,-37.71,-11.94,30.22
50527,0.15,0.21,0.71,-66.29,-24.64,-5.74,30.32
50537,0.21,0.20,0.65,-73.63,-12.03,-3.47,30.37
50547,0.20,0.21,0.66,-88.78,3.18,-3.48,30.37
50557,0.21,0.18,0.69,-105.94,20.21,-3.27,30.37
50567,0.15,0.13,0.82,-116.35,30.93,-3.33,30.37
50577,0.07,0.03,0.99,-118.17,33.71,-3.95,30.37
50587,0.02,-0.03,1.11,-110.18,26.43,-3.94,30.27
50597,-0.01,-0.02,1.15,-99.42,14.73,-4.20,30.46
50607,0.01,0.01,1.15,-93.24,2.37,-3.54,30.32
50617,0.05,0.05,1.08,-92.24,-2.37,-0.31,30.32
50627,0.11,0.05,1.05,-94.06,1.04,4.55,30.32
50637,0.15,0.05,1.03,-98.06,9.11,7.07,30.41
50647,0.17,0.02,1.04,-103.10,16.53,6.18,30.32
50657,0.20,-0.02,1.05,-106.89,19.65,4.52,30.41
50667,0.22,-0.10,1.09,-106.58,23.25,0.66,30.37
50677,0.20,-0.17,1.16,-105.13,26.55,-4.35,30.37
50687,0.16,-0.21,1.23,-98.76,28.43,-7.63,30.27
50697,0.13,-0.18,1.25,-89.88,25.01,-9.37,30.37
50707,0.11,-0.11,1.18,-81.04,27.34,-5.86,30.37
50717,0.13,-0.06,1.12,-78.32,35.10,-1.98,30.37
50727,0.11,-0.05,1.14,-80.14,39.60,0.21,30.37
50737,0.09,-0.06,1.17,-83.82,40.84,-0.67,30.37
50747,0.07,-0.05,1.18,-83.28,39.98,-0.08,30.22
50757,0.07,-0.10,1.16,-76.98,43.15,2.15,30.32
50767,0.03,-0.20,1.14,-67.25,44.49,8.31,30.32
50777,0.03,-0.27,1.10,-56.11,44.20,12.43,30.32
50787,0.09,-0.31,1.01,-52.76,38.72,6.82,30.22
50797,0.08,-0.30,0.94,-61.77,34.31,-6.44,30.37
50807,0.10,-0.28,0.86,-76.32,27.42,-21.08,30.41
50817,0.00,-0.27,0.90,-86.98,21.34,-28.53,30.37
50827,-0.12,-0.26,0.97,-92.11,17.13,-26.18,30.37
50837,-0.22,-0.28,1.09,-90.61,14.15,-18.72,30.37
50847,-0.28,-0.32,1.20,-89.44,2.93,-9.63,30.27
50857,-0.30,-0.34,1.24,-86.08,-12.11,-0.52,30.27
50867,-0.21,-0.36,1.23,-78.70,-24.00,7.34,30.27
50877,-0.07,-0.39,1.14,-71.08,-29.47,10.81,30.32
50887,0.07,-0.39,1.04,-65.73,-21.27,10.56,30.32
50897,0.15,-0.39,0.97,-68.23,-7.53,6.38,30.32
50907,0.17,-0.40,1.01,-75.02,7.83,-0.05,30.41
50917,0.10,-0.42,1.11,-80.67,19.05,-5.60,30.41
50927,0.01,-0.43,1.22,-81.65,19.28,-8.84,30.37
50937,-0.06,-0.43,1.30,-75.51,16.60,-9.34,30.32
50947,-0.09,-0.44,1.32,-65.91,14.27,-5.86,30.37
50957,-0.07,-0.46,1.32,-54.56,15.13,-1.63,30.37
50967,-0.03,-0.52,1.32,-42.18,19.13,-1.36,30.27
50977,-0.02,-0.56,1.28,-33.53,20.43,-4.72,30.27
50987,-0.05,-0.54,1.25,-31.39,15.79,-8.76,30.37
50997,-0.06,-0.49,1.20,-32.06,8.02,-13.63,30.37
51007,-0.09,-0.42,1.08,-30.67,10.58,-13.79,30.37
51017,-0.11,-0.38,1.02,-29.31,20.09,-7.66,30.32
51027,-0.12,-0.37,1.01,-25.05,34.73,1.27,30.41
51037,-0.15,-0.42,1.02,-24.02,47.10,8.90,30.32
51047,-0.17,-0.48,1.08,-25.56,47.66,13.40,30.41
51057,-0.15,-0.52,1.10,-29.15,45.36,16.67,30.37
51067,-0.13,-0.53,1.13,-36.81,34.60,14.63,30.22
51077,-0.13,-0.55,1.16,-46.93,14.47,7.56,30.37
51087,-0.10,-0.52,1.15,-51.19,-3.97,2.67,30.27
51097,-0.08,-0.46,1.15,-51.91,-17.79,3.63,30.37
51107,0.01,-0.46,1.10,-51.24,-15.91,4.95,30.27
51117,0.08,-0.48,1.08,-48.76,-4.82,6.73,30.37
51127,0.15,-0.51,1.05,-45.22,11.85,9.21,30.27
51137,0.22,-0.54,1.04,-40.55,33.16,8.50,30.27
51147,0.23,-0.58,1.10,-42.03,43.80,-1.40,30.32
51157,0.13,-0.62,1.24,-48.06,33.08,-18.87,30.32
51167,-0.01,-0.61,1.33,-45.45,14.24,-32.17,30.41
51177,-0.16,-0.54,1.37,-37.82,-5.22,-32.24,30.41
51187,-0.21,-0.48,1.36,-25.80,-17.34,-21.08,30.37
51197,-0.19,-0.47,1.31,-15.73,-20.55,-6.95,30.41
51207,-0.11,-0.44,1.24,-13.10,-19.69,0.92,30.32
51217,-0.02,-0.48,1.14,-15.37,-20.70,0.70,30.27
51227,0.08,-0.50,1.01,-16.66,-9.47,-1.31,30.37
51237,0.05,-0.50,1.07,-22.47,-13.53,-8.21,30.37
51247,0.04,-0.50,1.09,-22.82,-13.27,-12.75,30.27
51257,-0.01,-0.49,1.14,-22.52,-12.35,-14.06,30.27
51267,-0.06,-0.49,1.18,-19.21,-10.82,-13.45,30.27
51277,-0.05,-0.50,1.17,-16.87,-14.23,-9.94,30.32
51287,-0.04,-0.50,1.18,-12.46,-11.28,-6.98,30.32
51297,-0.03,-0.52,1.21,-7.82,-10.84,-7.57,30.32
51307,-0.05,-0.55,1.20,-5.47,-17.40,-7.89,30.32
51317,-0.04,-0.52,1.21,-2.73,-20.85,-7.79,30.37
51327,-0.03,-0.50,1.17,-0.63,-23.97,-7.85,30.32
51337,0.00,-0.51,1.12,0.60,-24.37,-6.61,30.32
51347,0.03,-0.49,1.09,3.89,-16.73,-4.21,30.27
51357,0.04,-0.50,1.08,6.75,-8.34,-3.30,30.37
51367,0.06,-0.53,1.08,10.05,-3.15,-4.98,30.37
51377,0.05,-0.54,1.08,14.46,-1.27,-8.34,30.37
51387,0.03,-0.53,1.08,17.63,-5.27,-12.06,30.37
51397,0.01,-0.49,1.05,18.20,-8.40,-14.17,30.37
51407,-0.02,-0.45,1.03,15.57,-13.34,-15.83,30.37
51417,-0.05,-0.43,1.00,11.76,-14.60,-13.88,30.32
51427,-0.05,-0.43,0.99,10.52,-15.07,-11.21,30.32
51437,-0.03,-0.44,0.96,6.35,-14.00,-9.04,30.41
51447,-0.01,-0.45,0.95,2.12,-10.69,-7.07,30.41
51457,0.01,-0.46,0.96,3.24,-5.68,-6.03,30.32
51467,0.04,-0.47,0.96,7.36,0.00,-5.65,30.41
51477,0.03,-0.46,0.95,9.30,4.61,-6.21,30.32
51487,0.00,-0.45,0.98,11.40,3.24,-7.65,30.46
51497,-0.02,-0.44,1.00,13.08,-3.82,-8.20,30.37
51507,-0.02,-0.42,1.00,14.49,-9.86,-8.81,30.37
51517,-0.01,-0.41,0.98,15.48,-12.98,-7.88,30.27
51527,0.01,-0.40,0.97,16.31,-12.95,-5.95,30.27
51537,0.03,-0.39,0.96,15.11,-9.34,-4.21,30.37
51547,0.06,-0.38,0.95,13.37,-4.87,-2.75,30.27
51557,0.07,-0.38,0.95,10.49,-0.69,-1.62,30.41
51567,0.08,-0.40,0.96,8.50,2.64,-2.52,30.41
51577,0.07,-0.41,0.98,7.36,5.08,-3.76,30.32
51587,0.05,-0.42,0.99,6.31,3.71,-6.64,30.32
51597,0.03,-0.43,1.02,7.10,2.17,-8.26,30.32
51607,0.02,-0.43,1.03,10.40,0.63,-7.53,30.32
51617,0.01,-0.42,1.03,14.63,0.75,-6.47,30.27
51627,0.01,-0.40,1.03,17.24,0.31,-5.15,30.18
51637,0.01,-0.39,1.02,16.98,-2.40,-3.15,30.37
51647,0.02,-0.39,0.99,14.70,-4.93,-3.44,30.27
51657,0.04,-0.36,0.97,11.13,-7.62,-3.28,30.37
51667,0.06,-0.36,0.96,9.62,-6.63,-2.90,30.27
51677,0.07,-0.37,0.97,8.66,-4.72,-2.55,30.37
51687,0.07,-0.37,0.99,8.06,-4.55,-3.28,30.32
51697,0.07,-0.37,1.00,7.33,-5.57,-4.81,30.32
51707,0.06,-0.37,1.01,6.75,-8.75,-5.39,30.32
51717,0.04,-0.37,1.02,6.96,-11.24,-5.34,30.32
51727,0.05,-0.37,1.00,8.12,-11.80,-4.58,30.32
51737,0.07,-0.37,0.97,8.23,-9.97,-3.25,30.32
51747,0.09,-0.36,0.96,7.30,-6.90,-2.32,30.37
51757,0.09,-0.36,0.96,5.62,-4.38,-2.49,30.46
51767,0.09,-0.36,0.97,6.14,-2.70,-2.98,30.37
51777,0.09,-0.36,0.96,6.44,-0.61,-3.34,30.37
51787,0.09,-0.34,0.94,5.68,0.76,-4.17,30.27
51797,0.07,-0.33,0.95,2.78,1.51,-3.88,30.37
51807,0.05,-0.33,0.96,0.60,-0.11,-2.76,30.37
51817,0.05,-0.35,0.98,0.35,-0.11,-2.34,30.41
51827,0.05,-0.35,0.99,0.24,-1.24,-1.53,30.32
51837,0.04,-0.34,0.99,0.32,-2.00,-0.63,30.32
51847,0.04,-0.33,0.98,-1.05,-1.15,1.01,30.32
51857,0.06,-0.32,0.96,-3.77,-1.22,1.89,30.32
51867,0.06,-0.34,0.96,-6.79,-3.85,1.86,30.41
51877,0.07,-0.35,0.99,-8.09,-5.51,0.52,30.37
51887,0.07,-0.35,0.99,-7.79,-5.44,-0.21,30.37
51897,0.08,-0.36,0.98,-6.35,-2.96,0.41,30.37
51907,0.08,-0.36,0.98,-5.45,0.27,1.57,30.37
51917,0.08,-0.36,0.99,-5.30,1.31,2.58,30.37
51927,0.07,-0.36,0.98,-5.51,1.53,2.64,30.27
51937,0.08,-0.36,0.97,-4.89,2.15,1.77,30.27
51947,0.08,-0.36,0.98,-3.51,2.44,0.99,30.37
51957,0.07,-0.36,0.98,-2.63,3.40,0.69,30.32
51967,0.06,-0.36,1.00,-2.37,1.77,0.34,30.32
51977,0.06,-0.35,1.00,-3.13,0.00,0.24,30.41
51987,0.06,-0.34,0.99,-3.40,-1.74,0.92,30.32
51997,0.07,-0.36,0.99,-3.27,-1.31,1.44,30.32
52007,0.08,-0.35,0.98,-3.48,0.08,1.47,30.37
52017,0.09,-0.35,0.97,-3.18,1.85,1.34,30.32
52027,0.09,-0.36,0.97,-3.65,3.16,1.22,30.37
52037,0.08,-0.35,0.98,-4.98,4.11,1.34,30.37
52047,0.07,-0.34,0.96,-6.02,5.54,1.56,30.37
52057,0.07,-0.36,0.98,-6.64,6.67,2.06,30.27
52067,0.07,-0.37,1.02,-5.68,7.05,1.83,30.27
52077,0.05,-0.37,1.03,-5.94,4.95,1.04,30.37
52087,0.05,-0.35,1.02,-6.18,2.06,1.01,30.32
52097,0.05,-0.35,1.01,-6.08,0.85,1.69,30.32
52107,0.06,-0.36,0.99,-6.21,1.62,2.00,30.41
52117,0.07,-0.37,1.01,-5.56,3.79,1.66,30.32
52127,0.06,-0.37,1.03,-5.19,4.29,1.24,30.41
52137,0.05,-0.36,1.04,-4.41,2.24,1.69,30.37
52147,0.04,-0.35,1.04,-4.78,-0.64,2.34,30.32
52157,0.05,-0.34,1.02,-4.50,-3.83,2.81,30.37
52167,0.08,-0.34,0.99,-4.32,-4.58,2.67,30.37
52177,0.10,-0.36,0.96,-5.42,-2.20,3.77,30.37
52187,0.10,-0.39,1.02,-5.11,4.05,1.76,30.37
52197,0.08,-0.39,1.06,-3.98,1.80,0.78,30.37
52207,0.07,-0.37,1.05,-3.16,-1.45,0.11,30.27
52217,0.07,-0.37,1.05,-2.34,-4.20,-1.21,30.41
52227,0.06,-0.36,1.03,-2.11,-5.57,-0.23,30.41
52237,0.08,-0.37,1.01,-1.34,-4.47,0.70,30.22
52247,0.09,-0.38,1.01,-0.11,-2.61,1.60,30.32
52257,0.11,-0.38,1.01,0.38,0.75,1.51,30.32
52267,0.10,-0.37,1.01,-0.47,0.58,1.91,30.37
52277,0.09,-0.36,0.99,-1.54,0.84,1.51,30.32
52287,0.09,-0.36,0.99,-3.65,0.06,2.73,30.27
