Millis,Acce_X,Acce_Y,Acce_Z,Gyro_X,Gyro_Y,Gyro_Z,Temp
68947,-0.05,-0.47,1.11,-8.27,-8.21,-10.34,31.35
68957,-0.06,-0.48,1.11,-3.63,-10.76,-9.77,31.45
68967,-0.02,-0.45,1.05,-0.78,-10.96,-4.76,31.40
68977,0.02,-0.40,1.00,-3.95,-1.44,2.20,31.35
68987,0.14,-0.38,0.94,-9.24,17.74,10.81,31.40
68997,0.26,-0.39,0.81,-9.73,43.76,19.31,31.31
69007,0.33,-0.40,0.75,-11.88,76.44,25.05,31.40
69017,0.26,-0.44,0.81,-15.54,102.23,22.11,31.40
69027,0.08,-0.46,0.85,-22.78,112.02,17.08,31.40
69037,-0.07,-0.51,0.92,-24.31,105.60,12.14,31.31
69047,-0.21,-0.56,1.01,-19.33,91.68,6.43,31.31
69057,-0.30,-0.59,1.08,-8.09,68.26,-0.15,31.40
69067,-0.33,-0.60,1.07,4.76,42.96,-7.05,31.31
69077,-0.36,-0.61,1.01,12.55,22.38,-14.47,31.35
69087,-0.36,-0.59,1.01,16.73,8.52,-20.58,31.35
69097,-0.38,-0.60,1.05,20.56,0.95,-25.28,31.45
69107,-0.41,-0.60,1.08,22.69,-3.88,-29.39,31.35
69117,-0.43,-0.57,1.08,24.14,-12.60,-31.47,31.35
69127,-0.46,-0.51,1.10,26.40,-29.05,-32.24,31.45
69137,-0.45,-0.47,1.07,29.01,-50.82,-31.50,31.49
69147,-0.41,-0.44,1.03,28.38,-77.13,-29.02,31.35
69157,-0.36,-0.41,0.94,22.23,-99.69,-26.92,31.40
69167,-0.21,-0.44,0.85,17.22,-111.77,-21.48,31.31
69177,-0.09,-0.46,0.80,11.15,-115.65,-17.82,31.40
69187,0.06,-0.47,0.76,5.24,-98.72,-14.55,31.40
69197,0.13,-0.48,0.73,-2.93,-76.72,-10.56,31.40
69207,0.18,-0.51,0.76,-5.98,-48.11,-8.87,31.40
69217,0.21,-0.59,0.87,-6.15,-22.89,-11.15,31.40
69227,0.17,-0.65,0.98,-4.43,-11.95,-22.23,31.40
69237,0.13,-0.67,1.03,1.01,-5.51,-33.98,31.40
69247,0.05,-0.63,1.05,5.40,-5.25,-44.35,31.45
69257,-0.01,-0.56,1.06,9.83,-12.17,-50.18,31.35
69267,-0.04,-0.48,1.01,12.69,-16.84,-49.74,31.35
69277,-0.03,-0.41,0.95,9.82,-18.40,-46.31,31.26
69287,-0.05,-0.36,0.97,2.81,-20.44,-42.92,31.35
69297,-0.05,-0.36,1.00,-0.05,-22.85,-37.54,31.35
69307,-0.05,-0.38,1.00,-0.63,-25.04,-32.06,31.31
69317,-0.01,-0.38,1.00,-0.29,-23.57,-25.57,31.26
69327,0.01,-0.38,0.97,-1.28,-21.05,-22.09,31.40
69337,0.07,-0.39,0.95,-2.93,-16.79,-21.11,31.31
69347,0.10,-0.38,0.91,-5.53,-12.92,-24.15,31.40
69357,0.11,-0.38,0.91,-8.27,-13.18,-29.36,31.49
69367,0.12,-0.37,0.94,-10.99,-16.46,-34.90,31.40
69377,0.12,-0.33,0.94,-13.60,-14.06,-39.45,31.40
69387,0.10,-0.30,0.95,-13.62,-8.87,-40.70,31.40
69397,0.07,-0.30,1.00,-13.16,0.21,-38.67,31.40
69407,0.02,-0.30,1.05,-14.67,6.93,-35.54,31.40
69417,-0.05,-0.32,1.10,-14.93,7.37,-29.83,31.35
69427,-0.07,-0.32,1.10,-13.30,5.16,-21.97,31.35
69437,-0.06,-0.33,1.09,-9.22,-0.24,-13.91,31.35
69447,-0.04,-0.36,1.10,-3.33,-8.44,-6.72,31.26
69457,0.04,-0.36,1.04,2.69,-13.62,-2.29,31.35
69467,0.09,-0.30,1.02,3.89,-15.97,0.20,31.35
69477,0.14,-0.26,0.99,1.60,-15.89,-0.69,31.40
69487,0.15,-0.29,1.03,-2.08,-12.70,-3.74,31.45
69497,0.17,-0.33,1.05,-8.29,-13.27,-9.42,31.40
69507,0.16,-0.37,1.09,-9.79,-13.60,-16.79,31.31
69517,0.13,-0.37,1.10,-12.75,-15.21,-23.07,31.40
69527,0.09,-0.37,1.10,-12.37,-16.52,-25.68,31.40
69537,0.06,-0.36,1.08,-7.05,-17.73,-25.59,31.40
69547,0.05,-0.32,1.06,-1.63,-20.81,-23.19,31.40
69557,0.06,-0.29,1.00,-1.24,-25.63,-19.45,31.40
69567,0.12,-0.25,0.96,-1.76,-27.21,-17.31,31.40
69577,0.19,-0.22,0.92,-3.82,-18.27,-14.87,31.40
69587,0.21,-0.23,0.95,-6.18,-4.78,-12.00,31.45
69597,0.20,-0.28,0.98,-6.40,10.27,-9.27,31.26
69607,0.15,-0.28,1.00,-2.20,19.69,-9.76,31.45
69617,0.06,-0.30,1.02,1.19,21.51,-6.92,31.35
69627,0.01,-0.30,1.00,0.99,14.23,-6.17,31.35
69637,-0.01,-0.28,0.95,-1.02,2.95,-5.22,31.45
69647,-0.02,-0.27,0.89,-7.25,-13.95,-4.00,31.40
69657,0.01,-0.27,0.82,-17.95,-33.25,-4.23,31.45
69667,0.05,-0.26,0.78,-29.51,-48.63,-5.18,31.35
69677,0.12,-0.28,0.78,-32.55,-51.31,-2.47,31.40
69687,0.19,-0.32,0.79,-29.56,-37.04,5.36,31.40
69697,0.23,-0.34,0.81,-21.79,-15.51,15.42,31.31
69707,0.27,-0.36,0.85,-13.45,7.27,22.58,31.40
69717,0.26,-0.38,0.93,-8.73,21.44,24.21,31.40
69727,0.23,-0.36,0.96,-6.18,26.37,20.21,31.49
69737,0.16,-0.35,0.98,-4.81,25.18,17.30,31.40
69747,0.11,-0.31,1.00,-4.95,19.15,15.39,31.40
69757,0.07,-0.27,1.02,-7.74,8.98,12.03,31.35
69767,0.02,-0.23,1.03,-12.78,-3.11,11.65,31.45
69777,-0.00,-0.21,1.04,-19.82,-14.63,13.11,31.45
69787,0.03,-0.18,1.06,-25.59,-20.79,16.05,31.45
69797,0.06,-0.19,1.08,-29.85,-18.72,19.24,31.35
69807,0.07,-0.23,1.13,-30.24,-15.22,21.69,31.45
69817,0.07,-0.25,1.14,-27.07,-11.51,25.16,31.40
69827,0.06,-0.28,1.15,-20.58,-7.77,31.11,31.54
69837,0.06,-0.32,1.18,-13.25,-7.54,36.37,31.35
69847,0.06,-0.33,1.17,-8.38,-11.98,38.70,31.40
69857,0.09,-0.31,1.13,-6.76,-19.25,38.26,31.40
69867,0.13,-0.31,1.11,-6.49,-26.14,34.29,31.40
69877,0.15,-0.29,1.08,-7.69,-27.51,31.77,31.31
69887,0.15,-0.28,1.09,-8.58,-26.26,34.34,31.40
69897,0.15,-0.29,1.10,-8.05,-22.17,39.48,31.40
69907,0.15,-0.33,1.12,-7.39,-19.07,45.01,31.40
69917,0.17,-0.35,1.12,-6.11,-17.86,47.66,31.31
69927,0.20,-0.38,1.12,-4.53,-15.86,48.53,31.35
69937,0.24,-0.40,1.12,-2.84,-11.59,47.42,31.35
69947,0.27,-0.40,1.10,-0.66,-4.61,46.61,31.35
69957,0.28,-0.40,1.09,-0.09,1.76,46.12,31.35
69967,0.31,-0.40,1.10,-2.23,6.53,43.30,31.35
69977,0.30,-0.40,1.11,-8.11,4.96,36.72,31.35
69987,0.30,-0.41,1.13,-15.39,-2.79,25.91,31.40
69997,0.25,-0.44,1.15,-21.51,-14.44,15.36,31.35
70007,0.19,-0.48,1.13,-23.30,-26.32,7.56,31.31
70017,0.17,-0.56,1.08,-22.47,-37.50,0.03,31.40
70027,0.18,-0.62,1.03,-26.08,-50.24,-13.11,31.31
70037,0.20,-0.60,0.98,-34.23,-74.98,-32.47,31.31
70047,0.26,-0.59,0.86,-43.91,-99.47,-48.90,31.49
70057,0.33,-0.52,0.79,-51.02,-117.15,-56.47,31.40
70067,0.44,-0.47,0.71,-50.06,-125.15,-54.89,31.31
70077,0.57,-0.44,0.66,-47.02,-117.05,-47.94,31.40
70087,0.65,-0.42,0.62,-42.66,-96.87,-39.50,31.40
70097,0.69,-0.40,0.62,-41.45,-65.59,-29.66,31.35
70107,0.65,-0.37,0.68,-42.23,-29.82,-19.60,31.35
70117,0.59,-0.35,0.74,-44.18,8.90,-11.15,31.45
70127,0.52,-0.35,0.79,-43.37,45.01,-3.63,31.35
70137,0.42,-0.32,0.83,-44.31,73.28,3.24,31.35
70147,0.30,-0.28,0.87,-48.41,91.92,10.84,31.35
70157,0.20,-0.24,0.93,-52.69,95.60,17.10,31.40
70167,0.12,-0.22,1.02,-62.93,83.94,22.50,31.45
70177,0.05,-0.22,1.11,-82.00,48.08,22.44,31.45
70187,0.05,-0.25,1.14,-99.30,3.65,19.80,31.49
70197,0.06,-0.31,1.13,-109.27,-36.79,18.18,31.40
70207,0.11,-0.39,1.07,-114.06,-59.16,19.13,31.40
70217,0.17,-0.46,1.01,-117.42,-57.53,22.82,31.31
70227,0.21,-0.51,1.00,-119.28,-50.05,26.63,31.40
70237,0.24,-0.55,1.00,-116.50,-40.93,30.52,31.40
70247,0.22,-0.56,0.96,-110.66,-39.08,32.81,31.40
70257,0.24,-0.55,0.92,-104.26,-41.62,35.77,31.40
70267,0.24,-0.59,0.88,-100.32,-45.53,35.47,31.45
70277,0.20,-0.62,0.87,-102.08,-47.65,30.23,31.45
70287,0.19,-0.62,0.89,-100.17,-47.63,25.56,31.45
70297,0.15,-0.67,0.96,-85.74,-46.17,22.00,31.35
70307,0.17,-0.71,0.97,-61.15,-48.14,21.60,31.45
70317,0.19,-0.72,0.92,-37.31,-54.40,20.85,31.35
70327,0.20,-0.69,0.89,-22.72,-58.34,22.11,31.31
70337,0.22,-0.65,0.85,-16.26,-63.53,29.07,31.45
70347,0.25,-0.64,0.81,-16.40,-60.46,37.80,31.40
70357,0.24,-0.64,0.79,-20.63,-52.55,47.08,31.40
70367,0.28,-0.66,0.75,-25.45,-44.15,55.37,31.40
70377,0.32,-0.70,0.74,-32.29,-36.05,58.47,31.49
70387,0.40,-0.76,0.77,-27.47,-31.74,52.49,31.40
70397,0.31,-0.80,0.88,-19.48,-36.96,37.07,31.40
70407,0.33,-0.81,0.91,3.48,-46.32,23.57,31.40
70417,0.37,-0.75,0.86,27.74,-54.06,6.69,31.31
70427,0.35,-0.66,0.81,47.05,-61.94,-7.79,31.45
70437,0.33,-0.57,0.74,60.52,-68.93,-12.98,31.45
70447,0.29,-0.48,0.64,57.53,-67.69,-6.85,31.45
70457,0.29,-0.42,0.59,43.82,-50.85,9.31,31.35
70467,0.26,-0.44,0.63,29.34,-32.09,33.18,31.35
70477,0.30,-0.51,0.71,19.74,-12.53,50.70,31.35
70487,0.30,-0.61,0.79,16.84,0.92,58.23,31.45
70497,0.30,-0.69,0.86,18.70,0.12,54.38,31.40
70507,0.30,-0.72,0.89,20.56,-10.61,43.66,31.45
70517,0.34,-0.75,0.91,23.02,-20.61,27.19,31.45
70527,0.37,-0.74,0.95,31.27,-32.84,6.67,31.40
70537,0.40,-0.69,0.89,42.29,-36.64,-9.13,31.40
70547,0.42,-0.55,0.80,51.16,-41.01,-15.71,31.40
70557,0.42,-0.43,0.67,50.64,-35.66,-9.24,31.40
70567,0.38,-0.35,0.62,36.78,-21.79,7.59,31.40
70577,0.31,-0.37,0.64,15.24,-7.27,30.11,31.31
70587,0.29,-0.50,0.69,-12.87,5.28,50.43,31.49
70597,0.30,-0.67,0.81,-32.93,8.66,58.14,31.31
70607,0.36,-0.76,0.92,-43.94,12.61,48.55,31.40
70617,0.37,-0.81,1.00,-35.74,-0.47,26.41,31.35
70627,0.41,-0.76,0.97,-12.87,-13.63,2.43,31.45
70637,0.43,-0.64,0.89,12.03,-21.02,-16.40,31.35
70647,0.42,-0.49,0.79,26.84,-26.32,-25.95,31.35
70657,0.39,-0.37,0.69,27.97,-25.34,-20.49,31.35
70667,0.42,-0.30,0.65,17.21,-9.56,-3.19,31.35
70677,0.37,-0.30,0.68,-0.08,3.57,16.76,31.35
70687,0.30,-0.36,0.73,-17.77,13.91,31.91,31.35
70697,0.24,-0.50,0.84,-26.18,21.11,40.00,31.45
70707,0.25,-0.61,0.90,-25.73,16.76,37.54,31.40
70717,0.26,-0.68,0.92,-17.85,5.86,27.92,31.40
70727,0.31,-0.71,0.91,-8.46,1.69,17.57,31.40
70737,0.33,-0.70,0.88,-3.47,-0.60,10.11,31.31
70747,0.33,-0.67,0.86,-2.58,1.22,6.72,31.31
70757,0.31,-0.66,0.83,-3.08,4.34,7.02,31.40
70767,0.32,-0.66,0.85,-3.42,7.10,8.41,31.40
70777,0.36,-0.67,0.82,-2.85,8.89,9.08,31.49
70787,0.38,-0.69,0.82,-0.56,10.93,8.61,31.31
70797,0.39,-0.67,0.81,3.47,12.99,7.18,31.40
70807,0.38,-0.64,0.82,10.55,14.93,2.95,31.49
70817,0.35,-0.60,0.78,16.32,15.01,-1.28,31.35
70827,0.32,-0.54,0.72,16.44,14.96,-2.69,31.45
70837,0.29,-0.50,0.70,11.30,14.61,-3.94,31.35
70847,0.28,-0.49,0.69,2.44,12.61,-4.69,31.35
70857,0.25,-0.53,0.74,-7.79,9.53,-4.20,31.35
70867,0.27,-0.59,0.77,-15.45,7.59,-3.74,31.26
70877,0.25,-0.65,0.82,-18.56,6.08,-4.44,31.40
70887,0.26,-0.70,0.84,-15.91,4.79,-4.35,31.35
70897,0.27,-0.70,0.85,-10.21,5.94,-3.50,31.35
70907,0.28,-0.70,0.84,-4.55,7.45,-3.24,31.45
70917,0.28,-0.69,0.82,-2.11,8.85,-3.08,31.40
70927,0.29,-0.67,0.82,-2.27,9.82,-4.26,31.40
70937,0.30,-0.66,0.83,-3.02,8.75,-7.62,31.40
70947,0.31,-0.64,0.84,-3.82,8.29,-10.99,31.40
70957,0.31,-0.62,0.83,-4.18,8.05,-12.98,31.40
70967,0.29,-0.60,0.81,-4.56,7.74,-11.27,31.49
70977,0.29,-0.59,0.82,-6.14,10.29,-7.18,31.40
70987,0.28,-0.61,0.82,-6.00,12.03,-4.20,31.40
70997,0.26,-0.65,0.86,-2.87,15.74,-2.60,31.31
71007,0.24,-0.67,0.87,2.69,17.42,-2.70,31.40
71017,0.24,-0.68,0.89,8.50,17.60,-4.76,31.35
71027,0.22,-0.66,0.89,10.41,17.98,-9.36,31.35
71037,0.20,-0.62,0.91,9.48,19.15,-15.80,31.45
71047,0.16,-0.58,0.96,7.08,20.31,-24.02,31.45
71057,0.09,-0.55,1.01,7.94,16.60,-35.02,31.45
71067,0.01,-0.50,1.04,14.31,10.29,-44.18,31.45
71077,-0.04,-0.42,1.00,26.23,1.80,-45.63,31.35
71087,-0.00,-0.35,0.88,38.47,-2.37,-38.03,31.40
71097,0.08,-0.27,0.75,39.45,0.31,-23.07,31.45
71107,0.17,-0.22,0.66,29.37,7.85,-6.31,31.35
71117,0.27,-0.25,0.60,11.25,19.65,7.48,31.35
71127,0.35,-0.31,0.62,-11.18,29.25,15.53,31.31
71137,0.38,-0.41,0.70,-23.31,27.51,16.43,31.40
71147,0.41,-0.51,0.75,-25.86,26.02,10.58,31.40
71157,0.42,-0.56,0.79,-23.91,15.50,-1.31,31.40
71167,0.46,-0.64,0.79,-18.87,5.18,-18.47,31.40
71177,0.46,-0.66,0.85,-14.49,-1.34,-36.96,31.40
71187,0.42,-0.66,0.87,-12.12,-7.89,-52.49,31.40
71197,0.38,-0.62,0.87,-12.41,-10.79,-59.91,31.40
71207,0.34,-0.60,0.87,-10.73,-11.27,-57.05,31.31
71217,0.37,-0.55,0.88,-5.30,-4.96,-43.57,31.31
71227,0.35,-0.52,0.86,-0.44,3.77,-22.20,31.31
71237,0.38,-0.55,0.90,4.20,14.47,0.18,31.35
71247,0.45,-0.59,0.90,13.77,32.75,18.40,31.35
71257,0.54,-0.65,0.86,19.94,54.56,23.71,31.26
71267,0.54,-0.74,0.92,19.25,72.56,16.66,31.45
71277,0.48,-0.79,1.00,18.73,78.73,5.69,31.35
71287,0.41,-0.81,1.04,19.08,71.31,-8.09,31.35
71297,0.36,-0.79,1.04,19.54,60.75,-21.04,31.45
71307,0.32,-0.75,1.03,20.14,46.66,-31.44,31.45
71317,0.30,-0.68,0.99,21.37,32.93,-37.33,31.45
71327,0.27,-0.62,0.98,22.20,22.60,-37.28,31.35
71337,0.32,-0.57,0.90,25.37,19.16,-34.08,31.40
71347,0.42,-0.53,0.80,26.98,26.98,-34.89,31.40
71357,0.47,-0.57,0.77,22.37,42.34,-41.21,31.40
71367,0.40,-0.53,0.81,17.56,52.23,-45.50,31.31
71377,0.31,-0.52,0.87,19.54,56.55,-43.21,31.31
71387,0.26,-0.53,0.88,25.54,61.73,-34.11,31.31
71397,0.22,-0.53,0.88,31.40,66.37,-23.54,31.31
71407,0.18,-0.54,0.88,34.76,70.18,-15.19,31.40
71417,0.10,-0.55,0.93,34.99,67.51,-10.24,31.40
71427,0.04,-0.54,0.97,33.24,53.73,-9.45,31.40
71437,0.07,-0.52,0.90,31.80,39.94,-13.40,31.40
71447,0.14,-0.52,0.81,26.37,32.82,-23.74,31.45
71457,0.13,-0.54,0.81,15.37,25.42,-36.29,31.35
71467,0.09,-0.51,0.82,3.79,14.53,-44.32,31.45
71477,0.06,-0.49,0.82,-3.94,3.89,-45.31,31.35
71487,0.10,-0.46,0.79,-8.72,1.02,-42.03,31.35
71497,0.12,-0.45,0.79,-13.60,2.64,-34.61,31.45
71507,0.13,-0.46,0.82,-13.44,4.03,-25.56,31.40
71517,0.14,-0.47,0.86,-13.28,6.40,-16.00,31.35
71527,0.16,-0.46,0.89,-13.15,5.50,-8.18,31.35
71537,0.23,-0.45,0.90,-11.37,8.76,-2.38,31.35
71547,0.30,-0.45,0.89,-10.38,20.09,0.18,31.31
71557,0.32,-0.52,0.98,-15.28,34.38,-2.76,31.31
71567,0.23,-0.56,1.13,-18.14,34.67,-7.83,31.40
71577,0.16,-0.58,1.20,-16.21,30.87,-12.79,31.31
71587,0.10,-0.61,1.21,-7.51,18.72,-17.34,31.40
71597,0.09,-0.62,1.19,5.13,7.69,-21.89,31.40
71607,0.10,-0.58,1.14,15.11,-3.89,-25.37,31.31
71617,0.14,-0.53,1.08,21.62,-15.71,-26.56,31.40
71627,0.23,-0.46,1.00,24.34,-23.79,-27.04,31.40
71637,0.31,-0.43,0.92,21.69,-25.48,-28.82,31.40
71647,0.37,-0.44,0.89,15.16,-22.31,-31.65,31.35
71657,0.39,-0.41,0.86,10.63,-17.65,-32.84,31.35
71667,0.37,-0.42,0.87,9.21,-11.91,-31.33,31.35
71677,0.35,-0.43,0.88,10.15,-8.34,-29.47,31.35
71687,0.34,-0.42,0.89,13.95,-6.41,-27.79,31.35
71697,0.31,-0.41,0.90,17.51,-3.95,-24.64,31.35
71707,0.29,-0.41,0.88,21.56,-0.69,-20.29,31.35
71717,0.31,-0.41,0.87,23.79,1.63,-18.79,31.49
71727,0.37,-0.43,0.86,22.23,4.85,-22.21,31.35
71737,0.39,-0.44,0.85,17.79,5.48,-28.12,31.45
71747,0.39,-0.43,0.87,12.20,4.75,-32.95,31.31
71757,0.38,-0.43,0.91,8.18,6.27,-33.31,31.40
71767,0.33,-0.42,0.93,7.08,9.62,-29.98,31.31
71777,0.32,-0.40,0.96,8.02,16.08,-24.98,31.40
71787,0.30,-0.38,0.96,9.47,24.61,-21.54,31.40
71797,0.29,-0.39,0.92,9.25,35.04,-18.64,31.40
71807,0.27,-0.42,0.85,7.37,48.11,-14.40,31.31
71817,0.22,-0.38,0.83,1.11,59.62,-7.83,31.31
71827,0.14,-0.35,0.85,-11.53,66.90,-4.40,31.40
71837,0.04,-0.40,0.97,-20.09,53.71,-6.52,31.31
71847,-0.03,-0.50,1.10,-20.67,20.35,-12.78,31.40
71857,-0.03,-0.52,1.13,-17.98,-22.31,-21.21,31.35
71867,0.08,-0.55,1.09,-8.31,-61.16,-29.62,31.35
71877,0.26,-0.54,1.00,2.58,-77.69,-36.38,31.35
71887,0.36,-0.51,0.93,7.18,-69.73,-36.73,31.45
71897,0.45,-0.50,0.86,15.16,-50.58,-27.07,31.35
71907,0.50,-0.45,0.78,19.30,-17.68,-13.39,31.35
71917,0.49,-0.42,0.76,17.47,9.60,-0.55,31.26
71927,0.45,-0.40,0.77,14.26,23.25,9.16,31.40
71937,0.39,-0.41,0.81,4.66,20.89,12.93,31.35
71947,0.33,-0.43,0.87,-5.86,5.80,9.95,31.35
71957,0.28,-0.46,0.94,-9.33,-16.20,1.92,31.40
71967,0.26,-0.47,0.96,-7.07,-28.98,-5.51,31.40
71977,0.25,-0.46,0.94,-0.21,-32.72,-6.40,31.40
71987,0.31,-0.49,0.93,7.10,-29.45,-3.94,31.40
71997,0.36,-0.47,0.89,8.96,-15.24,1.11,31.40
72007,0.36,-0.48,0.91,12.78,0.67,8.55,31.40
72017,0.36,-0.51,0.97,21.50,10.29,13.65,31.31
72027,0.35,-0.52,1.00,27.07,13.16,12.18,31.40
72037,0.35,-0.51,1.01,27.79,4.24,3.95,31.31
72047,0.36,-0.45,1.01,21.44,-9.54,-9.66,31.40
72057,0.37,-0.41,1.01,10.82,-21.47,-23.36,31.40
72067,0.38,-0.36,1.01,0.35,-32.47,-32.29,31.35
72077,0.37,-0.30,0.97,-4.81,-29.04,-30.41,31.35
72087,0.37,-0.25,0.90,-4.32,-11.89,-16.81,31.45
72097,0.37,-0.23,0.88,-2.37,19.07,3.59,31.35
72107,0.33,-0.23,0.87,-0.21,54.24,25.91,31.35
72117,0.25,-0.22,0.90,0.44,76.81,41.33,31.35
72127,0.18,-0.27,0.95,-4.24,76.40,46.06,31.35
72137,0.19,-0.35,0.99,-12.08,55.85,37.79,31.31
72147,0.27,-0.44,1.00,-20.61,26.46,16.44,31.35
72157,0.35,-0.53,0.99,-27.18,-4.06,-10.32,31.26
72167,0.39,-0.56,0.97,-30.84,-16.32,-29.56,31.35
72177,0.39,-0.54,0.95,-24.78,-14.85,-32.56,31.31
72187,0.40,-0.49,0.89,-13.16,14.26,-17.05,31.31
72197,0.36,-0.46,0.87,3.86,51.34,8.99,31.31
72207,0.29,-0.41,0.87,18.61,88.29,34.37,31.31
72217,0.21,-0.38,0.90,25.71,109.44,49.13,31.40
72227,0.11,-0.34,0.90,23.91,106.00,51.56,31.31
72237,0.02,-0.32,0.93,13.59,70.37,42.34,31.31
72247,0.03,-0.33,0.92,-4.11,22.46,25.27,31.40
72257,0.07,-0.35,0.88,-23.48,-24.46,3.92,31.31
72267,0.13,-0.36,0.81,-43.60,-56.84,-12.40,31.40
72277,0.19,-0.36,0.74,-59.74,-57.65,-11.76,31.40
72287,0.21,-0.44,0.67,-66.40,-36.93,11.24,31.35
72297,0.31,-0.47,0.73,-67.01,6.50,39.51,31.35
72307,0.40,-0.53,0.85,-61.22,54.11,56.12,31.35
72317,0.36,-0.63,0.93,-51.59,83.79,57.91,31.35
72327,0.26,-0.69,1.04,-46.50,80.69,43.45,31.26
72337,0.18,-0.71,1.12,-38.63,52.52,21.18,31.45
72347,0.16,-0.72,1.09,-32.55,25.08,0.00,31.31
72357,0.10,-0.69,1.04,-29.08,4.72,-14.15,31.26
72367,0.07,-0.65,0.99,-24.40,3.21,-13.39,31.35
72377,0.08,-0.61,0.93,-16.24,19.45,1.07,31.35
72387,0.06,-0.60,0.92,-4.73,36.90,18.44,31.40
72397,0.08,-0.60,0.92,4.03,52.98,32.18,31.40
72407,0.14,-0.61,0.90,10.95,54.92,36.18,31.31
72417,0.13,-0.63,0.91,9.59,38.40,26.44,31.31
72427,0.16,-0.65,0.90,6.95,20.46,10.50,31.31
72437,0.15,-0.61,0.87,5.36,3.89,-2.75,31.31
72447,0.14,-0.59,0.86,5.25,-6.66,-10.69,31.40
72457,0.12,-0.58,0.84,4.44,-7.62,-14.35,31.31
72467,0.09,-0.59,0.86,6.53,-6.50,-13.39,31.31
72477,0.09,-0.57,0.82,11.40,2.96,-5.47,31.40
72487,0.11,-0.54,0.79,17.73,21.25,7.89,31.35
72497,0.10,-0.51,0.76,21.10,36.55,20.52,31.35
72507,0.12,-0.52,0.78,19.34,48.78,25.22,31.35
72517,0.11,-0.53,0.83,13.24,46.44,19.88,31.26
72527,0.08,-0.56,0.87,8.79,34.18,8.52,31.35
72537,0.06,-0.59,0.93,8.21,22.38,-4.03,31.35
72547,0.01,-0.58,0.96,15.76,7.19,-10.15,31.35
72557,-0.01,-0.58,0.97,22.44,0.27,-10.64,31.21
72567,-0.00,-0.56,0.94,27.10,-0.09,-5.56,31.35
72577,0.01,-0.52,0.91,29.21,8.24,0.90,31.35
72587,0.01,-0.50,0.91,28.89,22.37,7.62,31.31
72597,0.01,-0.46,0.91,25.04,33.02,12.98,31.31
72607,0.00,-0.44,0.92,19.30,35.01,12.73,31.40
72617,0.00,-0.42,0.91,10.76,29.69,5.33,31.40
72627,-0.03,-0.41,0.92,-1.53,15.37,-6.37,31.31
72637,-0.05,-0.43,0.96,-17.69,-3.13,-19.47,31.40
72647,-0.09,-0.45,1.03,-33.77,-22.72,-29.56,31.40
72657,-0.13,-0.47,1.06,-44.17,-47.71,-34.00,31.40
72667,-0.06,-0.46,1.01,-44.78,-55.15,-27.91,31.31
72677,0.06,-0.44,0.96,-36.49,-49.51,-17.27,31.31
72687,0.15,-0.42,0.90,-28.90,-26.02,-5.86,31.35
72697,0.19,-0.44,0.90,-25.42,-5.37,3.66,31.35
72707,0.14,-0.47,0.95,-26.70,9.05,12.29,31.35
72717,0.09,-0.52,1.06,-24.24,13.60,17.07,31.35
72727,0.04,-0.58,1.08,-16.26,15.79,23.05,31.35
72737,-0.03,-0.62,1.08,-5.89,8.41,28.14,31.35
72747,-0.04,-0.62,1.05,5.10,3.04,33.76,31.35
72757,-0.02,-0.59,1.01,14.27,-0.92,41.10,31.35
72767,0.01,-0.55,0.96,18.79,-4.47,44.12,31.31
72777,0.08,-0.51,0.86,18.27,0.27,45.37,31.40
72787,0.12,-0.48,0.79,12.99,6.11,44.50,31.31
72797,0.14,-0.48,0.77,8.70,13.59,44.49,31.40
72807,0.15,-0.49,0.73,5.22,19.31,46.84,31.40
72817,0.21,-0.51,0.68,4.69,31.94,50.32,31.31
72827,0.25,-0.54,0.67,2.58,49.25,50.95,31.31
72837,0.21,-0.56,0.75,0.14,63.42,45.91,31.31
72847,0.09,-0.56,0.82,-1.40,69.27,41.60,31.40
72857,0.01,-0.58,0.90,-0.02,64.87,39.60,31.31
72867,-0.06,-0.58,0.95,1.34,52.00,36.81,31.40
72877,-0.11,-0.60,0.98,0.84,33.88,30.98,31.35
72887,-0.11,-0.56,0.97,1.66,24.60,30.85,31.35
72897,-0.10,-0.55,0.95,2.66,10.23,26.34,31.35
72907,-0.08,-0.53,0.95,1.36,8.34,23.88,31.26
72917,-0.09,-0.51,0.94,-0.61,3.69,24.58,31.35
72927,-0.07,-0.52,0.96,-1.01,6.49,25.65,31.26
72937,-0.08,-0.51,1.01,0.06,11.85,25.19,31.31
72947,-0.14,-0.48,1.01,0.14,11.92,27.44,31.35
72957,-0.15,-0.46,1.02,0.05,10.09,33.11,31.35
72967,-0.12,-0.44,1.02,-3.56,9.27,39.11,31.31
72977,-0.07,-0.47,1.03,-11.86,6.15,41.85,31.31
72987,-0.02,-0.50,1.05,-22.40,0.82,37.18,31.31
72997,0.03,-0.54,1.06,-29.10,-7.47,28.92,31.40
73007,0.08,-0.55,1.07,-28.75,-7.80,22.50,31.31
73017,0.13,-0.60,1.08,-23.08,2.52,19.48,31.31
73027,0.14,-0.64,1.10,-16.85,13.76,18.96,31.40
73037,0.10,-0.68,1.09,-11.86,15.68,14.81,31.40
73047,0.05,-0.65,1.02,-8.58,9.60,7.63,31.35
73057,0.03,-0.53,0.89,-6.49,3.04,0.76,31.35
73067,0.02,-0.40,0.79,-11.24,5.59,-0.52,31.26
73077,-0.00,-0.37,0.77,-20.09,15.24,3.53,31.35
73087,-0.04,-0.39,0.84,-27.44,21.92,7.34,31.45
73097,-0.10,-0.45,0.95,-35.45,24.38,8.11,31.26
73107,-0.14,-0.51,1.07,-37.97,14.67,5.86,31.40
73117,-0.10,-0.63,1.15,-31.57,1.98,4.11,31.26
73127,-0.02,-0.71,1.22,-15.76,-2.82,1.31,31.35
73137,0.02,-0.73,1.22,2.17,1.21,-2.67,31.40
73147,0.03,-0.71,1.18,16.82,7.54,-7.11,31.40
73157,-0.01,-0.65,1.15,24.49,10.95,-9.60,31.31
73167,-0.03,-0.56,1.08,25.97,8.24,-14.03,31.40
73177,-0.07,-0.50,0.99,22.24,5.04,-16.02,31.31
73187,-0.07,-0.45,0.93,17.57,2.08,-17.16,31.40
73197,-0.08,-0.45,0.88,13.80,1.82,-18.87,31.40
73207,-0.10,-0.42,0.87,9.69,5.04,-18.67,31.40
73217,-0.14,-0.42,0.86,4.75,-0.26,-16.52,31.35
73227,-0.17,-0.44,0.88,1.04,0.12,-15.11,31.35
73237,-0.19,-0.45,0.91,0.56,2.52,-10.38,31.35
73247,-0.18,-0.46,0.95,2.43,2.84,-6.02,31.45
73257,-0.16,-0.48,0.96,4.95,3.54,-3.13,31.45
73267,-0.16,-0.49,0.97,6.76,-0.29,-1.40,31.35
73277,-0.12,-0.48,0.96,8.20,0.14,-0.12,31.40
73287,-0.11,-0.48,0.98,7.69,-1.24,1.15,31.35
73297,-0.10,-0.48,0.97,5.56,-2.95,0.41,31.26
73307,-0.09,-0.46,0.96,3.79,-5.21,-0.66,31.35
73317,-0.08,-0.43,0.92,2.98,-7.62,-1.04,31.31
73327,-0.07,-0.41,0.90,-0.27,-7.73,-1.51,31.40
73337,-0.04,-0.40,0.89,-4.60,-5.77,-2.26,31.40
73347,-0.03,-0.42,0.91,-7.30,-3.54,-3.71,31.40
73357,-0.03,-0.45,0.94,-6.66,-1.51,-4.95,31.31
73367,-0.06,-0.47,0.99,-4.53,2.26,-4.60,31.40
73377,-0.06,-0.48,1.01,-0.40,4.38,-3.69,31.40
73387,-0.05,-0.48,1.02,3.74,5.22,-2.89,31.40
73397,-0.06,-0.47,1.01,6.21,2.24,-3.16,31.45
73407,-0.06,-0.47,1.00,6.96,0.37,-4.87,31.35
73417,-0.07,-0.45,0.97,6.82,-1.54,-5.82,31.35
73427,-0.08,-0.42,0.92,6.46,-2.05,-3.82,31.35
73437,-0.07,-0.41,0.91,4.29,-0.81,-0.37,31.35
73447,-0.08,-0.40,0.90,1.34,-1.07,1.02,31.45
73457,-0.06,-0.39,0.90,-0.84,0.03,1.59,31.35
73467,-0.05,-0.40,0.88,-3.11,2.40,1.98,31.35
73477,-0.03,-0.41,0.91,-6.31,3.40,1.47,31.35
73487,-0.04,-0.41,0.94,-9.76,4.41,0.67,31.31
73497,-0.04,-0.43,0.96,-11.50,5.36,0.96,31.40
73507,-0.04,-0.45,0.98,-9.91,5.31,0.23,31.40
73517,-0.05,-0.46,1.00,-8.53,4.72,-0.63,31.31
73527,-0.06,-0.45,1.00,-7.44,2.52,-0.14,31.40
73537,-0.06,-0.45,0.99,-6.47,2.02,-0.72,31.31
73547,-0.05,-0.47,1.00,-5.04,0.29,-1.68,31.31
73557,-0.05,-0.47,0.99,-4.17,-0.18,-3.24,31.31
73567,-0.04,-0.45,0.97,-3.40,0.27,-3.45,31.31
73577,-0.05,-0.44,0.97,-2.90,1.31,-3.66,31.35
73587,-0.06,-0.45,0.97,-2.52,2.26,-3.40,31.45
73597,-0.06,-0.44,0.98,-2.20,2.09,-2.63,31.45
73607,-0.07,-0.43,0.98,-3.11,0.29,-2.73,31.45
73617,-0.06,-0.43,0.97,-3.77,-1.42,-3.40,31.35
73627,-0.06,-0.44,0.97,-4.43,0.05,-2.84,31.35
73637,-0.07,-0.46,0.97,-4.24,0.32,-0.81,31.35
73647,-0.06,-0.46,0.96,-3.31,1.48,-0.06,31.35
73657,-0.05,-0.46,0.96,-2.47,3.53,-0.40,31.40
73667,-0.04,-0.45,0.95,-1.79,4.38,-0.32,31.31
73677,-0.04,-0.45,0.94,-1.34,5.95,0.00,31.40
73687,-0.03,-0.45,0.95,-1.21,7.04,-0.37,31.31
73697,-0.04,-0.44,0.96,-1.98,7.02,-1.10,31.40
73707,-0.04,-0.44,0.97,-1.57,4.34,-1.34,31.31
73717,-0.03,-0.44,0.98,-1.18,4.53,-2.18,31.40
73727,-0.03,-0.44,0.97,-1.40,3.05,-2.49,31.31
73737,-0.01,-0.44,0.95,-1.39,5.31,-1.94,31.45
73747,-0.02,-0.44,0.95,-1.18,6.69,-2.29,31.35
73757,-0.04,-0.44,0.96,-0.37,9.21,-1.27,31.35
73767,-0.05,-0.43,0.94,1.10,10.73,0.81,31.45
73777,-0.04,-0.42,0.95,2.82,12.90,3.45,31.26
73787,-0.06,-0.44,0.99,4.58,12.27,5.80,31.31
73797,-0.07,-0.44,0.99,7.50,11.39,8.41,31.35
73807,-0.09,-0.45,1.03,13.56,7.51,11.51,31.40
73817,-0.10,-0.47,1.07,19.42,5.98,14.03,31.40
73827,-0.14,-0.45,1.06,22.17,-0.18,15.69,31.31
73837,-0.14,-0.43,1.03,23.37,-6.41,13.21,31.31
73847,-0.11,-0.41,1.00,20.08,-11.15,9.02,31.21
73857,-0.08,-0.38,0.96,14.81,-12.58,5.71,31.40
73867,-0.05,-0.36,0.92,9.36,-7.59,3.83,31.40
73877,-0.03,-0.36,0.90,4.11,0.84,2.82,31.40
73887,-0.02,-0.37,0.89,-1.25,3.79,1.68,31.40
73897,-0.03,-0.40,0.92,-5.16,10.05,-1.01,31.26
73907,-0.06,-0.45,0.97,-5.04,14.76,-3.37,31.35
73917,-0.08,-0.46,0.99,-1.76,21.62,-2.52,31.45
73927,-0.12,-0.46,1.02,3.95,25.39,2.23,31.26
73937,-0.15,-0.45,1.04,7.51,23.48,5.63,31.45
