Millis,Acce_X,Acce_Y,Acce_Z,Gyro_X,Gyro_Y,Gyro_Z,Temp
34557,0.07,-0.57,0.79,-52.15,-0.73,5.71,31.59
34567,0.03,-0.60,0.85,-56.23,1.34,2.53,31.59
34577,0.01,-0.64,0.89,-55.02,4.61,1.16,31.49
34587,-0.03,-0.66,0.93,-51.74,7.42,1.19,31.59
34597,-0.05,-0.70,0.98,-46.03,8.93,1.89,31.49
34607,-0.05,-0.78,1.05,-36.89,9.25,1.08,31.59
34617,-0.04,-0.82,1.10,-26.21,7.54,-0.79,31.59
34627,-0.03,-0.80,1.09,-16.17,8.53,-2.47,31.49
34637,-0.05,-0.76,1.09,-8.63,7.37,-3.11,31.54
34647,-0.04,-0.74,1.09,-5.88,2.52,-5.21,31.54
34657,-0.01,-0.75,1.08,-5.66,-2.92,-9.44,31.54
34667,0.02,-0.76,1.11,-4.32,-3.39,-15.21,31.64
34677,0.02,-0.77,1.15,-1.68,1.47,-20.27,31.54
34687,-0.01,-0.78,1.24,1.97,8.08,-24.98,31.54
34697,-0.09,-0.75,1.33,4.11,12.09,-29.60,31.59
34707,-0.21,-0.70,1.45,4.26,9.04,-30.14,31.45
34717,-0.36,-0.64,1.57,5.97,-2.41,-24.05,31.64
34727,-0.45,-0.61,1.69,9.02,-15.66,-10.26,31.49
34737,-0.45,-0.61,1.76,15.68,-24.06,9.47,31.59
34747,-0.38,-0.66,1.82,24.29,-31.21,27.79,31.59
34757,-0.25,-0.73,1.84,31.62,-37.13,36.17,31.59
34767,-0.10,-0.82,1.83,35.59,-41.74,34.84,31.49
34777,0.03,-0.90,1.83,46.00,-42.21,30.14,31.49
34787,0.12,-0.95,1.80,55.71,-38.73,19.24,31.59
34797,0.13,-0.95,1.78,66.35,-33.19,10.73,31.49
34807,0.16,-0.92,1.72,76.70,-23.27,6.79,31.68
34817,0.14,-0.91,1.67,87.08,-18.64,3.19,31.68
34827,0.12,-0.89,1.60,92.89,-15.92,-1.56,31.54
34837,0.09,-0.86,1.54,93.60,-13.42,-5.95,31.54
34847,0.05,-0.85,1.49,95.21,-11.34,-8.82,31.64
34857,0.00,-0.86,1.47,99.50,-7.24,-9.98,31.54
34867,-0.04,-0.85,1.40,100.40,-5.02,-9.80,31.54
34877,-0.06,-0.87,1.36,104.63,-5.95,-8.05,31.54
34887,-0.05,-0.88,1.32,111.25,-6.40,-6.38,31.45
34897,-0.05,-0.87,1.25,119.56,-5.01,-3.30,31.54
34907,-0.04,-0.87,1.20,125.82,-8.34,-2.20,31.59
34917,-0.01,-0.84,1.13,129.44,-9.92,-2.92,31.49
34927,0.00,-0.80,1.06,127.48,-6.76,-3.71,31.59
34937,0.02,-0.77,1.00,125.71,-2.84,-2.66,31.59
34947,0.02,-0.75,0.99,126.49,2.46,-0.98,31.59
34957,0.02,-0.71,0.95,124.15,7.10,-0.29,31.59
34967,0.01,-0.67,0.93,119.71,7.63,0.47,31.59
34977,0.01,-0.62,0.92,113.08,7.91,-0.32,31.59
34987,0.01,-0.58,0.92,105.42,7.94,-1.02,31.49
34997,0.01,-0.63,0.98,99.53,5.79,-3.05,31.49
35007,0.02,-0.69,1.03,99.48,9.68,-5.68,31.64
35017,0.02,-0.74,1.12,104.75,9.19,-9.95,31.45
35027,0.05,-0.74,1.17,108.41,2.09,-13.51,31.54
35037,0.13,-0.71,1.15,117.76,-4.35,-18.06,31.54
35047,0.19,-0.65,1.14,120.84,-3.59,-24.56,31.54
35057,0.21,-0.61,1.07,121.95,5.68,-26.05,31.54
35067,0.17,-0.59,1.09,120.67,18.63,-25.28,31.45
35077,0.08,-0.58,1.13,123.74,24.84,-24.09,31.59
35087,0.00,-0.54,1.13,127.36,22.76,-21.57,31.54
35097,-0.04,-0.51,1.10,130.00,14.08,-19.44,31.49
35107,-0.05,-0.50,1.08,134.79,1.50,-19.08,31.49
35117,-0.07,-0.48,1.04,141.69,-6.35,-18.92,31.59
35127,-0.09,-0.41,0.95,146.23,-9.21,-14.34,31.49
35137,-0.11,-0.36,0.90,148.56,-9.86,-6.95,31.49
35147,-0.11,-0.32,0.85,148.35,-12.00,-1.22,31.59
35157,-0.09,-0.26,0.76,146.44,-15.16,1.80,31.49
35167,-0.06,-0.18,0.65,141.24,-15.25,4.72,31.49
35177,-0.05,-0.10,0.62,132.79,-13.51,6.95,31.49
35187,-0.03,-0.05,0.58,124.58,-4.87,10.41,31.54
35197,-0.02,-0.05,0.60,115.05,0.21,12.78,31.54
35207,-0.02,-0.06,0.63,108.06,3.37,14.08,31.45
35217,-0.05,-0.07,0.65,103.74,6.89,15.34,31.45
35227,-0.07,-0.05,0.68,103.85,6.15,17.02,31.64
35237,-0.09,-0.02,0.69,104.12,2.38,18.03,31.45
35247,-0.12,0.02,0.68,104.32,-4.85,18.46,31.59
35257,-0.12,0.06,0.67,103.24,-12.76,20.31,31.54
35267,-0.10,0.08,0.68,101.19,-21.77,22.18,31.45
35277,-0.07,0.14,0.63,97.54,-25.69,23.50,31.49
35287,-0.04,0.12,0.61,93.66,-27.27,24.70,31.49
35297,0.00,0.09,0.63,94.58,-26.18,23.31,31.40
35307,0.04,0.10,0.61,97.85,-20.79,20.32,31.49
35317,0.07,0.18,0.55,101.47,-14.87,19.45,31.49
35327,0.09,0.23,0.54,97.19,-10.12,18.03,31.49
35337,0.09,0.25,0.53,92.34,-9.53,16.31,31.49
35347,0.09,0.26,0.54,87.33,-9.05,14.32,31.59
35357,0.16,0.26,0.53,85.71,-7.05,13.27,31.49
35367,0.23,0.28,0.47,85.21,2.20,11.33,31.49
35377,0.28,0.31,0.42,84.23,15.48,9.92,31.54
35387,0.34,0.34,0.34,81.37,34.38,11.02,31.35
35397,0.39,0.38,0.30,77.01,59.51,12.15,31.54
35407,0.37,0.35,0.30,70.23,82.84,11.95,31.45
35417,0.34,0.31,0.34,63.01,104.37,10.14,31.35
35427,0.28,0.32,0.44,50.02,118.38,4.78,31.45
35437,0.19,0.32,0.58,44.81,129.45,-1.48,31.45
35447,0.04,0.27,0.74,50.12,133.34,-7.33,31.45
35457,-0.11,0.25,0.85,63.30,125.33,-12.08,31.49
35467,-0.25,0.23,0.93,76.95,104.76,-16.24,31.40
35477,-0.35,0.27,0.95,86.96,69.68,-20.92,31.49
35487,-0.38,0.40,0.87,95.07,33.48,-23.08,31.49
35497,-0.42,0.53,0.76,100.47,5.62,-19.68,31.40
35507,-0.38,0.59,0.66,100.96,-14.73,-9.47,31.49
35517,-0.32,0.58,0.61,100.06,-24.89,3.97,31.40
35527,-0.23,0.54,0.63,99.31,-31.86,12.93,31.49
35537,-0.12,0.50,0.62,99.97,-38.26,14.11,31.49
35547,-0.04,0.48,0.58,98.18,-40.98,8.26,31.49
35557,0.00,0.50,0.54,96.40,-40.53,-0.24,31.45
35567,0.01,0.53,0.50,95.33,-36.82,-8.55,31.45
35577,-0.02,0.56,0.49,90.02,-33.97,-15.05,31.54
35587,-0.05,0.61,0.50,82.99,-34.34,-18.26,31.35
35597,-0.08,0.65,0.52,77.27,-36.69,-18.75,31.54
35607,-0.09,0.68,0.51,72.08,-40.55,-17.59,31.54
35617,-0.08,0.67,0.54,69.47,-43.62,-14.11,31.45
35627,-0.06,0.65,0.55,70.47,-43.95,-9.86,31.49
35637,-0.04,0.63,0.58,75.59,-39.74,-6.21,31.49
35647,-0.02,0.61,0.60,83.98,-32.75,-3.60,31.59
35657,-0.00,0.65,0.57,89.76,-27.62,-2.79,31.40
35667,0.01,0.69,0.51,91.04,-25.42,-3.85,31.59
35677,0.03,0.74,0.45,86.49,-24.87,-7.30,31.49
35687,0.07,0.76,0.41,80.35,-21.69,-13.62,31.49
35697,0.09,0.79,0.38,74.44,-12.17,-21.80,31.49
35707,0.05,0.80,0.38,67.33,-1.65,-29.97,31.40
35717,-0.07,0.80,0.46,61.51,0.12,-34.23,31.59
35727,-0.18,0.82,0.51,60.52,-4.81,-30.34,31.54
35737,-0.23,0.82,0.56,62.00,-13.01,-18.95,31.45
35747,-0.21,0.83,0.60,64.15,-22.31,-6.15,31.45
35757,-0.11,0.84,0.55,66.61,-27.79,2.79,31.54
35767,-0.01,0.84,0.49,64.38,-25.07,5.19,31.45
35777,0.07,0.83,0.45,58.61,-19.08,-0.52,31.45
35787,0.09,0.83,0.43,52.08,-13.39,-9.69,31.45
35797,0.08,0.83,0.40,44.49,-6.81,-17.05,31.49
35807,0.02,0.83,0.39,37.07,-1.39,-21.50,31.45
35817,-0.04,0.84,0.40,32.00,2.67,-20.93,31.45
35827,-0.11,0.84,0.42,29.56,-1.02,-17.53,31.49
35837,-0.15,0.82,0.45,34.31,-6.56,-14.20,31.49
35847,-0.16,0.81,0.46,44.81,-11.50,-7.21,31.49
35857,-0.16,0.80,0.42,49.51,-16.73,2.05,31.49
35867,-0.14,0.84,0.42,46.49,-25.66,10.02,31.49
35877,-0.07,0.86,0.36,40.98,-29.82,15.15,31.49
35887,0.01,0.85,0.35,33.77,-27.95,16.99,31.49
35897,0.09,0.81,0.32,31.51,-15.28,15.83,31.49
35907,0.10,0.79,0.35,35.51,0.26,13.24,31.40
35917,0.07,0.78,0.36,42.87,11.21,11.79,31.45
35927,0.02,0.81,0.35,47.65,12.56,10.98,31.35
35937,-0.03,0.85,0.31,47.19,5.57,8.89,31.45
35947,-0.08,0.91,0.24,40.05,-3.54,6.73,31.45
35957,-0.11,0.94,0.20,26.00,-14.56,8.03,31.54
35967,-0.10,0.99,0.15,9.89,-22.49,14.03,31.54
35977,-0.05,0.95,0.13,-4.03,-28.05,19.79,31.45
35987,0.04,0.88,0.15,-13.95,-26.02,21.92,31.45
35997,0.10,0.83,0.22,-13.71,-20.81,20.72,31.45
36007,0.14,0.73,0.32,4.38,-20.53,16.00,31.49
36017,0.15,0.69,0.32,28.49,-9.15,11.25,31.49
36027,0.11,0.74,0.29,42.66,-8.90,5.40,31.49
36037,0.06,0.85,0.24,41.79,-19.85,-2.81,31.40
36047,0.03,0.93,0.18,29.05,-34.02,-8.40,31.49
36057,0.04,0.94,0.15,12.38,-46.18,-11.02,31.49
36067,0.11,0.92,0.09,1.59,-45.54,-7.39,31.40
36077,0.16,0.86,0.10,0.44,-29.51,-3.18,31.40
36087,0.18,0.83,0.14,7.25,-9.18,0.32,31.40
36097,0.17,0.81,0.19,15.71,5.82,1.04,31.35
36107,0.15,0.82,0.22,23.10,9.07,-3.63,31.45
36117,0.09,0.86,0.20,21.85,-1.11,-12.66,31.45
36127,0.00,0.90,0.22,14.90,-27.02,-24.29,31.54
36137,-0.01,0.90,0.18,-2.37,-55.18,-41.45,31.45
36147,0.01,0.89,0.15,-18.69,-71.79,-49.15,31.45
36157,0.03,0.85,0.18,-18.32,-63.98,-40.56,31.45
36167,0.05,0.73,0.24,3.04,-36.50,-21.02,31.45
36177,0.06,0.67,0.26,29.98,-5.54,0.03,31.49
36187,0.12,0.71,0.25,55.60,20.90,17.51,31.49
36197,0.16,0.76,0.22,74.05,35.25,24.44,31.49
36207,0.20,0.82,0.16,81.04,40.47,19.30,31.49
36217,0.20,0.87,0.13,82.50,44.60,5.63,31.49
36227,0.13,0.83,0.09,64.95,30.73,-21.31,31.40
36237,0.01,0.86,0.10,46.89,9.18,-44.20,31.49
36247,-0.15,0.86,0.12,32.73,-13.86,-55.88,31.49
36257,-0.35,0.86,0.14,22.46,-34.26,-51.59,31.49
36267,-0.42,0.86,0.13,22.89,-50.87,-31.54,31.40
36277,-0.31,0.84,0.11,32.73,-48.64,-7.15,31.54
36287,-0.15,0.87,0.10,41.65,-42.55,8.47,31.45
36297,0.05,0.92,0.01,46.76,-38.99,9.71,31.54
36307,0.23,0.98,-0.11,47.56,-26.56,1.79,31.54
36317,0.28,1.03,-0.16,41.71,-16.85,-15.73,31.45
36327,0.24,1.07,-0.19,29.44,-7.98,-39.42,31.45
36337,0.05,1.08,-0.16,15.79,-7.13,-63.33,31.54
36347,-0.17,1.12,-0.09,6.15,-7.86,-78.09,31.40
36357,-0.34,1.22,-0.06,10.95,-3.71,-80.56,31.45
36367,-0.48,1.38,-0.09,29.71,5.37,-69.88,31.49
36377,-0.58,1.55,-0.16,47.94,18.35,-56.00,31.40
36387,-0.67,1.70,-0.19,52.49,23.34,-45.22,31.49
36397,-0.77,1.83,-0.22,39.53,16.92,-38.75,31.49
36407,-0.91,1.85,-0.22,14.75,-7.18,-32.05,31.49
36417,-1.00,1.84,-0.16,-13.42,-26.08,-16.56,31.49
36427,-1.00,1.74,-0.08,-21.44,-27.08,14.35,31.40
36437,-0.90,1.61,0.03,-6.61,-15.13,54.67,31.49
36447,-0.68,1.41,0.08,20.76,1.50,87.54,31.49
36457,-0.45,1.24,0.04,34.75,5.42,102.50,31.49
36467,-0.22,1.12,0.06,27.48,-1.36,99.66,31.45
36477,-0.06,1.02,0.02,9.97,-27.11,87.95,31.45
36487,0.16,0.93,-0.02,-8.15,-28.17,77.36,31.54
36497,0.19,0.87,0.08,-17.21,-17.19,69.04,31.45
36507,0.32,0.78,0.02,-26.89,-8.90,58.17,31.45
36517,0.37,0.73,0.04,-20.99,0.23,55.33,31.35
36527,0.38,0.71,0.14,-12.55,4.46,46.84,31.45
36537,0.39,0.71,0.09,-7.27,4.21,34.63,31.45
36547,0.37,0.74,0.14,2.58,8.21,23.60,31.45
36557,0.32,0.80,0.14,9.68,9.71,10.99,31.49
36567,0.26,0.87,0.11,6.87,4.52,-3.82,31.40
36577,0.20,0.95,0.09,1.51,-3.98,-17.95,31.49
36587,0.13,1.01,0.06,-6.64,-12.58,-28.87,31.49
36597,0.03,1.06,0.05,-15.05,-20.49,-33.39,31.49
36607,-0.02,1.09,0.04,-18.03,-19.88,-29.24,31.49
36617,-0.05,1.11,0.04,-15.28,-10.85,-18.79,31.49
36627,-0.06,1.12,0.06,-8.93,2.78,-7.71,31.49
36637,-0.07,1.13,0.08,-3.98,13.18,-1.24,31.49
36647,-0.09,1.15,0.09,-3.10,13.31,-0.43,31.45
36657,-0.12,1.16,0.09,-7.60,5.28,-1.86,31.54
36667,-0.14,1.16,0.09,-13.62,-6.14,-2.96,31.45
36677,-0.13,1.15,0.09,-20.23,-13.60,-2.93,31.35
36687,-0.09,1.12,0.09,-28.26,-20.49,-3.97,31.45
36697,-0.07,1.09,0.08,-35.36,-25.34,-1.95,31.45
36707,-0.03,1.05,0.10,-38.67,-25.69,1.11,31.45
36717,0.03,1.01,0.12,-32.69,-16.66,5.21,31.45
36727,0.06,1.01,0.13,-21.45,-3.98,8.41,31.49
36737,0.07,1.05,0.12,-11.95,7.10,6.55,31.45
36747,0.04,1.10,0.11,-6.27,9.63,0.78,31.40
36757,-0.03,1.17,0.08,-6.05,4.35,-4.75,31.49
36767,-0.11,1.22,0.08,-11.01,-5.86,-7.65,31.49
36777,-0.14,1.24,0.04,-20.99,-14.72,-6.81,31.49
36787,-0.14,1.26,0.02,-31.83,-21.16,-3.10,31.40
36797,-0.15,1.25,0.04,-43.10,-25.68,-0.15,31.40
36807,-0.13,1.23,0.02,-50.81,-28.87,2.56,31.40
36817,-0.12,1.20,0.05,-56.14,-31.71,6.63,31.59
36827,-0.07,1.16,0.07,-55.18,-32.00,10.56,31.49
36837,-0.01,1.14,0.08,-49.98,-26.89,14.53,31.40
36847,0.05,1.12,0.07,-41.07,-16.23,17.59,31.54
36857,0.08,1.12,0.06,-32.09,-1.18,17.98,31.45
36867,0.08,1.13,0.07,-22.64,12.23,15.24,31.45
36877,0.02,1.16,0.06,-15.28,21.98,11.47,31.54
36887,-0.09,1.21,0.01,-12.78,23.37,10.34,31.45
36897,-0.14,1.23,-0.02,-20.76,16.05,11.56,31.49
36907,-0.15,1.24,-0.04,-38.09,1.71,11.28,31.45
36917,-0.09,1.23,-0.04,-59.08,-13.37,9.16,31.45
36927,-0.03,1.17,-0.02,-79.40,-24.60,6.60,31.45
36937,-0.01,1.11,0.02,-91.76,-31.16,6.52,31.59
36947,0.02,1.03,0.09,-91.33,-27.89,10.09,31.49
36957,0.06,0.95,0.17,-83.01,-14.96,15.07,31.49
36967,0.08,0.93,0.21,-68.37,6.15,20.37,31.49
36977,0.08,0.92,0.25,-51.44,26.98,24.75,31.49
36987,0.07,0.97,0.24,-36.70,41.92,25.88,31.49
36997,0.06,1.00,0.17,-30.70,49.48,22.12,31.31
37007,0.08,1.05,0.11,-34.85,47.74,12.29,31.49
37017,0.05,1.08,0.05,-49.53,40.56,1.02,31.54
37027,0.02,1.08,0.03,-65.65,34.40,-7.54,31.35
37037,-0.07,1.08,0.04,-80.69,20.99,-10.49,31.45
37047,-0.16,1.09,0.05,-92.67,11.60,-2.14,31.45
37057,-0.16,1.06,0.07,-100.12,2.52,11.82,31.54
37067,-0.06,1.04,0.05,-107.24,-6.20,20.50,31.49
37077,0.14,1.02,-0.03,-114.96,-13.57,18.67,31.45
37087,0.35,0.98,-0.12,-126.99,-15.91,2.52,31.54
37097,0.46,0.92,-0.12,-140.53,-16.72,-24.26,31.49
37107,0.50,0.84,-0.07,-159.10,-19.86,-62.49,31.49
37117,0.43,0.78,0.04,-172.56,-27.91,-97.51,31.49
37127,0.26,0.69,0.14,-179.21,-34.73,-118.93,31.49
37137,0.06,0.62,0.28,-164.95,-26.11,-111.57,31.40
37147,-0.15,0.58,0.44,-134.64,-4.67,-81.19,31.49
37157,-0.23,0.72,0.43,-93.54,28.95,-31.44,31.49
37167,-0.28,0.81,0.34,-69.77,62.47,19.30,31.40
37177,-0.29,0.79,0.38,-65.13,72.93,53.56,31.45
37187,-0.22,0.74,0.43,-74.70,66.67,63.21,31.45
37197,-0.17,0.64,0.52,-91.01,37.59,51.83,31.45
37207,-0.03,0.52,0.47,-105.92,20.49,34.73,31.45
37217,-0.11,0.47,0.67,-116.14,-24.92,11.71,31.45
37227,-0.11,0.39,0.72,-112.37,-42.38,4.76,31.54
37237,-0.08,0.36,0.76,-98.99,-35.40,12.02,31.49
37247,-0.04,0.38,0.75,-86.60,-15.02,24.64,31.54
37257,-0.02,0.39,0.74,-69.34,8.96,35.94,31.40
37267,0.02,0.40,0.72,-55.66,24.70,38.92,31.59
37277,0.05,0.46,0.63,-53.91,31.71,33.51,31.40
37287,0.04,0.46,0.60,-54.98,30.32,24.87,31.49
37297,0.03,0.45,0.60,-57.40,27.01,16.82,31.49
37307,-0.05,0.46,0.62,-61.05,18.66,11.16,31.49
37317,-0.08,0.46,0.64,-62.56,16.46,13.74,31.40
37327,-0.04,0.45,0.62,-63.05,17.18,17.02,31.40
37337,-0.03,0.46,0.58,-65.37,21.34,19.16,31.49
37347,-0.04,0.45,0.61,-67.89,21.82,20.55,31.45
37357,-0.07,0.42,0.65,-68.34,17.62,22.49,31.54
37367,-0.03,0.40,0.64,-68.02,11.57,23.02,31.45
37377,0.02,0.39,0.60,-67.33,8.81,20.69,31.45
37387,0.05,0.37,0.61,-68.02,10.89,19.39,31.45
37397,0.08,0.37,0.59,-66.53,21.08,21.59,31.45
37407,0.05,0.37,0.62,-66.87,32.49,27.30,31.49
37417,0.01,0.34,0.69,-66.78,38.06,30.43,31.54
37427,0.00,0.31,0.73,-66.05,36.53,27.83,31.40
37437,-0.01,0.28,0.76,-66.26,24.58,22.03,31.40
37447,-0.01,0.30,0.74,-64.84,14.12,16.08,31.49
37457,-0.00,0.32,0.72,-64.55,7.15,13.74,31.40
37467,0.02,0.31,0.72,-65.10,8.95,15.59,31.40
37477,0.04,0.31,0.75,-66.20,18.03,18.81,31.49
37487,0.03,0.28,0.81,-67.79,26.72,20.05,31.49
37497,-0.01,0.22,0.88,-66.81,32.50,20.37,31.49
37507,-0.05,0.16,0.96,-62.69,29.77,18.75,31.40
37517,-0.09,0.14,0.99,-57.25,17.21,14.31,31.45
37527,-0.11,0.18,0.95,-51.95,-1.54,9.13,31.45
37537,-0.08,0.24,0.88,-48.70,-23.02,4.84,31.45
37547,-0.03,0.30,0.80,-50.49,-37.21,1.60,31.54
37557,0.02,0.36,0.72,-55.44,-39.94,2.08,31.45
37567,0.05,0.35,0.69,-58.17,-33.82,6.24,31.45
37577,0.08,0.34,0.71,-57.54,-21.28,11.82,31.40
37587,0.09,0.30,0.72,-54.98,-11.13,13.71,31.35
37597,0.07,0.27,0.74,-55.25,-4.69,11.62,31.49
37607,0.06,0.32,0.70,-59.47,-6.61,6.52,31.49
37617,0.04,0.34,0.68,-64.92,-8.84,3.19,31.40
37627,0.03,0.36,0.69,-71.01,-5.95,3.86,31.40
37637,0.04,0.34,0.69,-75.37,0.60,6.61,31.40
37647,0.03,0.31,0.73,-79.82,4.49,9.63,31.40
37657,0.01,0.27,0.77,-85.34,1.42,9.24,31.49
37667,0.02,0.27,0.77,-91.01,-1.86,7.71,31.49
37677,0.02,0.27,0.76,-96.14,-1.88,8.53,31.40
37687,0.03,0.27,0.76,-98.40,4.66,12.66,31.45
37697,0.03,0.20,0.84,-98.76,15.95,16.44,31.45
37707,-0.01,0.13,0.92,-99.57,24.56,15.28,31.45
37717,-0.08,0.06,1.01,-98.98,26.89,12.85,31.54
37727,-0.17,0.02,1.07,-95.37,19.76,9.31,31.45
37737,-0.24,0.04,1.07,-89.79,4.96,7.57,31.45
37747,-0.24,0.16,1.03,-86.79,-18.32,7.86,31.49
37757,-0.14,0.32,0.91,-89.89,-34.96,11.66,31.45
37767,-0.05,0.36,0.79,-98.50,-38.50,20.18,31.45
37777,0.06,0.27,0.74,-106.44,-24.63,31.85,31.49
37787,0.16,0.14,0.77,-108.63,1.97,41.66,31.40
37797,0.18,0.00,0.84,-113.71,28.58,43.97,31.49
37807,0.14,-0.10,0.97,-120.96,42.98,40.49,31.40
37817,0.04,-0.17,1.14,-124.09,35.15,34.40,31.40
37827,-0.03,-0.21,1.25,-123.47,18.03,29.39,31.49
37837,-0.05,-0.24,1.33,-117.98,1.97,28.09,31.40
37847,-0.04,-0.24,1.33,-108.20,-9.68,29.42,31.49
37857,0.02,-0.24,1.25,-98.96,-17.05,31.95,31.40
37867,0.12,-0.23,1.14,-94.60,-16.63,33.21,31.49
37877,0.21,-0.21,1.07,-95.31,-7.42,32.69,31.54
37887,0.26,-0.21,1.07,-98.56,3.63,29.94,31.54
37897,0.27,-0.23,1.09,-100.02,18.18,27.07,31.45
37907,0.22,-0.23,1.15,-100.35,29.25,23.83,31.45
37917,0.15,-0.25,1.22,-99.92,32.72,21.47,31.45
37927,0.07,-0.29,1.28,-100.24,25.71,16.66,31.54
37937,0.04,-0.34,1.36,-100.00,15.16,12.73,31.45
37947,0.04,-0.36,1.41,-92.53,2.17,8.00,31.45
37957,0.07,-0.38,1.37,-79.88,-3.91,5.79,31.49
37967,0.12,-0.36,1.31,-67.76,-3.57,6.32,31.40
37977,0.21,-0.34,1.21,-55.82,4.34,6.93,31.31
37987,0.24,-0.29,1.13,-50.55,15.62,4.60,31.49
37997,0.22,-0.27,1.11,-50.75,19.79,1.68,31.49
38007,0.19,-0.29,1.10,-51.48,20.08,-2.72,31.49
38017,0.16,-0.31,1.10,-49.86,17.83,-7.86,31.40
38027,0.11,-0.33,1.09,-46.96,13.68,-12.41,31.49
38037,0.07,-0.32,1.06,-45.92,8.89,-15.08,31.49
38047,0.03,-0.32,1.03,-44.20,4.64,-15.77,31.40
38057,0.01,-0.32,1.00,-43.13,3.89,-14.64,31.45
38067,-0.02,-0.32,0.99,-41.02,2.55,-12.84,31.54
38077,-0.07,-0.33,1.01,-40.95,0.95,-9.65,31.45
38087,-0.09,-0.34,1.03,-40.52,-1.73,-6.53,31.45
38097,-0.11,-0.37,1.07,-37.86,-7.33,-2.69,31.45
38107,-0.08,-0.36,1.03,-36.15,-10.70,0.02,31.54
38117,-0.03,-0.32,0.98,-36.99,-9.42,3.02,31.45
38127,0.02,-0.27,0.93,-40.29,-2.23,6.95,31.40
38137,0.05,-0.28,0.93,-46.37,8.11,8.40,31.54
38147,0.03,-0.33,1.00,-50.95,16.87,8.84,31.40
38157,-0.04,-0.41,1.10,-54.76,15.48,5.08,31.49
38167,-0.09,-0.45,1.18,-52.96,3.97,3.24,31.49
38177,-0.13,-0.48,1.21,-48.81,-12.78,0.82,31.40
38187,-0.14,-0.48,1.21,-45.01,-28.87,0.43,31.49
38197,-0.06,-0.42,1.11,-39.02,-32.11,4.52,31.49
38207,0.07,-0.39,0.99,-37.07,-17.16,10.02,31.40
38217,0.11,-0.38,1.00,-38.98,3.63,13.02,31.40
38227,0.07,-0.40,1.03,-46.09,17.33,12.18,31.45
38237,0.00,-0.44,1.14,-56.50,13.53,5.82,31.35
38247,-0.07,-0.49,1.23,-63.80,-1.92,-2.63,31.45
38257,-0.11,-0.49,1.26,-65.18,-23.59,-5.62,31.54
38267,-0.08,-0.48,1.20,-59.13,-31.57,-0.18,31.45
38277,0.04,-0.46,1.12,-51.40,-21.65,9.25,31.45
38287,0.11,-0.52,1.10,-42.67,-6.73,13.74,31.45
38297,0.14,-0.56,1.07,-38.00,7.40,13.85,31.40
38307,0.15,-0.60,1.10,-30.69,13.44,7.36,31.40
38317,0.09,-0.59,1.09,-23.34,13.76,-0.79,31.49
38327,0.04,-0.56,1.06,-15.50,11.24,-6.08,31.40
38337,0.02,-0.50,1.01,-11.82,13.91,-7.89,31.40
38347,-0.01,-0.45,0.99,-17.04,12.21,-6.72,31.49
38357,-0.04,-0.41,0.99,-27.48,14.81,-2.35,31.40
38367,-0.07,-0.42,1.02,-36.18,11.66,1.88,31.40
38377,-0.05,-0.45,1.07,-43.91,9.57,5.25,31.49
38387,-0.03,-0.48,1.11,-45.47,-0.63,6.18,31.49
38397,0.05,-0.50,1.10,-40.92,-1.69,6.44,31.35
38407,0.10,-0.55,1.12,-36.81,-3.31,4.29,31.45
38417,0.16,-0.57,1.12,-32.66,1.83,-0.81,31.45
38427,0.17,-0.60,1.13,-29.27,6.37,-7.69,31.45
38437,0.15,-0.59,1.10,-22.55,17.62,-13.54,31.35
38447,0.08,-0.57,1.10,-19.18,24.14,-16.76,31.45
38457,-0.00,-0.54,1.08,-18.84,24.99,-15.89,31.45
38467,-0.03,-0.51,1.04,-19.77,23.71,-11.66,31.40
38477,-0.04,-0.49,0.97,-21.56,23.94,-5.65,31.45
38487,-0.03,-0.48,0.93,-24.76,23.48,-1.92,31.40
38497,-0.02,-0.50,0.94,-28.43,22.49,-1.82,31.40
38507,-0.06,-0.52,0.98,-31.65,19.39,-2.79,31.49
38517,-0.10,-0.53,1.03,-32.32,11.53,-0.66,31.49
38527,-0.10,-0.54,1.04,-29.31,4.05,2.67,31.49
38537,-0.08,-0.56,1.01,-26.11,-3.89,6.38,31.49
38547,-0.01,-0.54,0.95,-23.54,-5.69,10.44,31.49
38557,0.07,-0.52,0.90,-23.36,0.95,13.83,31.40
38567,0.10,-0.53,0.91,-24.52,9.86,13.83,31.59
38577,0.07,-0.52,0.95,-27.83,12.73,10.32,31.45
38587,-0.00,-0.50,0.99,-30.03,9.25,7.59,31.45
38597,-0.06,-0.51,1.02,-30.38,3.71,6.73,31.54
38607,-0.10,-0.50,1.01,-28.47,-2.87,9.13,31.35
38617,-0.10,-0.50,0.98,-26.35,-5.37,13.37,31.45
38627,-0.04,-0.48,0.97,-27.02,-2.85,15.68,31.35
38637,-0.02,-0.47,1.00,-30.79,-2.64,13.28,31.40
38647,-0.03,-0.50,1.04,-35.44,-1.62,10.46,31.54
38657,-0.06,-0.53,1.11,-36.21,-2.38,9.50,31.49
38667,-0.10,-0.54,1.14,-34.75,-2.27,10.93,31.49
38677,-0.11,-0.54,1.16,-34.00,-5.89,13.44,31.49
38687,-0.10,-0.51,1.16,-34.61,-8.06,16.55,31.49
38697,-0.05,-0.52,1.14,-36.81,-7.57,19.25,31.49
38707,0.00,-0.56,1.20,-37.37,-7.08,19.34,31.49
38717,0.04,-0.62,1.24,-35.30,-6.81,17.80,31.49
38727,0.07,-0.67,1.27,-29.11,-5.98,14.79,31.49
38737,0.08,-0.66,1.28,-22.38,-2.14,11.94,31.49
38747,0.06,-0.64,1.29,-16.81,-2.21,8.18,31.49
38757,0.06,-0.61,1.29,-12.18,-4.82,4.93,31.54
38767,0.06,-0.64,1.27,-9.40,-9.19,1.02,31.45
38777,0.06,-0.66,1.27,-5.08,-13.68,-1.73,31.45
38787,0.06,-0.67,1.23,2.89,-12.41,-2.11,31.35
38797,0.06,-0.67,1.17,12.23,-6.43,-1.71,31.35
38807,0.06,-0.63,1.13,17.60,-0.79,-0.96,31.45
38817,0.04,-0.59,1.07,18.34,-0.87,-1.48,31.64
38827,0.03,-0.57,1.04,17.34,-4.00,-3.57,31.35
38837,0.03,-0.56,1.01,16.56,-5.74,-5.77,31.54
38847,0.02,-0.56,0.98,15.19,-5.47,-7.71,31.40
38857,0.00,-0.55,1.00,15.95,-6.06,-7.53,31.49
38867,-0.01,-0.54,0.97,15.22,-6.72,-7.04,31.49
38877,-0.01,-0.54,0.96,14.24,-7.69,-6.87,31.40
38887,-0.01,-0.54,0.94,12.09,-9.54,-6.47,31.49
38897,-0.00,-0.53,0.90,12.26,-8.18,-5.42,31.49
38907,-0.00,-0.53,0.88,12.78,-5.04,-2.93,31.40
38917,0.01,-0.52,0.86,11.92,-1.31,-1.08,31.40
38927,0.01,-0.52,0.87,10.31,-0.53,-0.87,31.49
38937,0.01,-0.53,0.88,8.37,-3.25,-1.11,31.49
38947,0.01,-0.53,0.87,8.34,-4.81,-1.13,31.49
38957,0.03,-0.53,0.87,8.84,-4.79,-0.95,31.45
38967,0.05,-0.49,0.83,7.98,-3.10,-0.73,31.45
38977,0.05,-0.49,0.83,5.40,-0.99,-0.31,31.45
38987,0.05,-0.51,0.85,3.47,-1.19,-0.89,31.35
38997,0.06,-0.52,0.86,2.37,-1.77,-1.91,31.45
39007,0.05,-0.51,0.88,2.02,-3.76,-2.50,31.54
39017,0.06,-0.52,0.89,3.13,-3.34,-2.56,31.49
39027,0.07,-0.53,0.90,4.53,-2.31,-3.04,31.45
39037,0.06,-0.54,0.90,5.92,-1.19,-4.08,31.45
39047,0.06,-0.54,0.88,7.47,-0.50,-5.62,31.45
39057,0.04,-0.51,0.87,7.69,1.80,-5.21,31.40
39067,0.02,-0.49,0.88,6.47,2.73,-4.18,31.49
39077,0.02,-0.49,0.90,4.55,1.57,-3.95,31.40
39087,0.01,-0.50,0.92,2.53,-1.98,-4.23,31.40
39097,0.02,-0.51,0.96,3.22,-5.11,-4.61,31.40
39107,0.02,-0.51,0.97,3.74,-6.40,-5.65,31.49
39117,0.03,-0.51,1.00,5.86,-6.64,-6.11,31.49
39127,0.04,-0.52,1.03,7.59,-4.63,-4.72,31.40
39137,0.05,-0.51,1.03,9.86,-3.66,-1.88,31.49
39147,0.06,-0.51,1.02,11.66,-1.69,-0.18,31.45
39157,0.06,-0.50,1.03,12.93,-2.27,-0.05,31.35
39167,0.07,-0.52,1.02,13.74,-2.85,-0.98,31.45
39177,0.08,-0.52,1.03,15.94,-3.79,-4.18,31.45
39187,0.08,-0.51,1.02,17.63,-3.76,-7.24,31.45
39197,0.06,-0.49,1.00,18.12,-3.18,-8.63,31.45
39207,0.03,-0.48,1.00,18.15,-2.78,-7.95,31.45
39217,0.02,-0.47,0.98,16.67,-3.18,-6.50,31.35
39227,0.03,-0.47,0.96,14.61,-3.56,-4.73,31.49
39237,0.04,-0.48,0.96,13.62,-2.76,-5.11,31.40
39247,0.05,-0.47,0.94,12.81,-1.63,-5.53,31.40
39257,0.03,-0.47,0.92,10.61,-1.74,-6.38,31.40
39267,0.01,-0.44,0.91,7.71,-2.17,-6.24,31.40
39277,0.00,-0.43,0.90,4.43,-1.97,-5.13,31.40
39287,0.01,-0.43,0.89,2.02,-0.41,-3.27,31.49
39297,0.02,-0.44,0.89,0.70,2.24,-1.39,31.49
39307,0.05,-0.45,0.90,0.89,6.31,-1.11,31.40
39317,0.07,-0.47,0.91,0.79,9.18,-2.38,31.40
39327,0.05,-0.47,0.93,0.29,9.56,-3.48,31.45
39337,0.03,-0.46,0.93,0.34,9.36,-3.48,31.45
39347,0.00,-0.45,0.93,0.41,7.28,-2.75,31.45
39357,0.00,-0.43,0.93,0.49,4.73,-1.34,31.35
39367,0.01,-0.45,0.94,1.16,2.58,0.11,31.45
39377,0.02,-0.44,0.93,1.88,2.37,1.68,31.45
39387,0.04,-0.44,0.91,1.48,2.24,2.47,31.45
39397,0.06,-0.44,0.91,0.24,1.15,2.49,31.40
39407,0.06,-0.43,0.90,-1.60,1.88,2.06,31.54
39417,0.08,-0.44,0.89,-2.85,4.66,1.24,31.49
39427,0.07,-0.44,0.91,-4.38,6.38,0.52,31.49
39437,0.06,-0.46,0.94,-4.78,5.89,-0.14,31.40
39447,0.04,-0.47,0.96,-4.06,4.06,-0.95,31.49
39457,0.05,-0.47,0.97,-2.00,2.56,-1.31,31.49
39467,0.04,-0.45,0.96,-0.72,1.77,-0.27,31.40
39477,0.05,-0.43,0.92,-2.31,2.81,0.87,31.40
39487,0.08,-0.45,0.93,-3.69,3.11,0.82,31.40
39497,0.09,-0.47,0.96,-4.76,4.21,-0.44,31.40
39507,0.08,-0.46,0.96,-4.78,4.82,-2.29,31.45
39517,0.06,-0.44,0.94,-5.18,5.02,-2.89,31.45
39527,0.04,-0.43,0.94,-6.03,3.92,-1.66,31.35
39537,0.05,-0.44,0.95,-7.16,2.24,-1.15,31.45
