Millis,Acce_X,Acce_Y,Acce_Z,Gyro_X,Gyro_Y,Gyro_Z,Temp
73597,-0.17,-0.43,1.05,6.23,-27.10,-10.12,31.45
73607,-0.14,-0.42,1.02,6.02,-29.80,-8.72,31.40
73617,-0.12,-0.39,0.99,6.40,-31.30,-6.98,31.35
73627,-0.11,-0.39,0.98,5.66,-32.81,-6.21,31.35
73637,-0.10,-0.38,0.98,4.87,-35.82,-5.39,31.40
73647,-0.09,-0.36,0.95,3.44,-37.18,-4.35,31.40
73657,-0.07,-0.36,0.96,2.05,-37.18,-2.61,31.49
73667,-0.06,-0.37,0.95,1.24,-34.50,-0.46,31.49
73677,-0.05,-0.36,0.94,0.02,-29.66,2.81,31.49
73687,-0.04,-0.36,0.94,-0.40,-24.55,5.48,31.40
73697,-0.04,-0.37,0.96,-1.42,-21.15,7.51,31.40
73707,-0.06,-0.38,0.97,-2.63,-20.61,8.43,31.40
73717,-0.07,-0.40,0.98,-3.71,-21.56,9.04,31.40
73727,-0.08,-0.40,1.00,-4.63,-23.27,10.20,31.49
73737,-0.10,-0.41,1.01,-4.78,-26.17,10.67,31.45
73747,-0.11,-0.43,1.03,-4.95,-29.73,10.03,31.45
73757,-0.13,-0.42,1.03,-5.18,-35.07,9.45,31.45
73767,-0.15,-0.42,1.02,-5.39,-39.50,8.32,31.45
73777,-0.16,-0.42,1.02,-6.84,-44.05,7.39,31.45
73787,-0.17,-0.40,1.00,-8.15,-47.05,8.60,31.45
73797,-0.17,-0.39,0.99,-9.59,-43.05,12.00,31.45
73807,-0.17,-0.41,0.99,-10.56,-34.93,17.42,31.35
73817,-0.18,-0.42,1.04,-9.54,-25.16,23.08,31.40
73827,-0.20,-0.45,1.06,-8.98,-16.98,27.92,31.40
73837,-0.24,-0.47,1.11,-8.00,-14.12,32.50,31.40
73847,-0.27,-0.46,1.14,-6.08,-12.78,36.44,31.40
73857,-0.28,-0.47,1.15,-4.53,-14.43,38.93,31.40
73867,-0.28,-0.49,1.16,-4.38,-17.30,40.34,31.40
73877,-0.30,-0.51,1.15,-3.88,-19.73,44.06,31.40
73887,-0.30,-0.53,1.17,-1.22,-20.92,48.43,31.40
73897,-0.30,-0.53,1.17,0.95,-21.65,51.98,31.49
73907,-0.30,-0.54,1.15,1.91,-25.08,54.87,31.40
73917,-0.29,-0.54,1.15,4.29,-31.08,56.69,31.35
73927,-0.27,-0.55,1.13,6.35,-37.24,57.98,31.45
73937,-0.25,-0.54,1.11,7.98,-43.10,60.21,31.45
73947,-0.22,-0.55,1.08,9.77,-46.23,63.10,31.45
73957,-0.19,-0.54,1.05,10.67,-45.79,67.18,31.35
73967,-0.16,-0.54,1.03,10.20,-43.62,71.08,31.45
73977,-0.11,-0.55,1.01,9.48,-42.17,73.05,31.45
73987,-0.09,-0.57,1.01,9.30,-39.66,73.83,31.49
73997,-0.08,-0.55,1.01,9.94,-38.55,73.73,31.35
74007,-0.07,-0.57,1.00,12.32,-38.23,73.04,31.40
74017,-0.07,-0.56,0.98,14.08,-39.60,72.31,31.40
74027,-0.04,-0.53,0.96,14.50,-38.82,72.61,31.40
74037,-0.01,-0.52,0.93,14.00,-35.95,74.44,31.40
74047,0.01,-0.50,0.92,12.06,-29.80,76.50,31.49
74057,0.01,-0.52,0.94,11.11,-21.77,80.61,31.31
74067,-0.00,-0.54,0.95,11.25,-17.86,82.02,31.40
74077,-0.02,-0.55,0.98,11.22,-20.20,80.89,31.49
74087,-0.04,-0.54,0.99,12.34,-29.92,78.24,31.40
74097,-0.03,-0.53,0.95,13.74,-40.46,76.52,31.45
74107,-0.01,-0.51,0.92,15.88,-51.31,75.28,31.35
74117,0.04,-0.50,0.83,19.07,-53.40,76.49,31.45
74127,0.11,-0.48,0.77,20.15,-52.61,78.03,31.35
74137,0.19,-0.43,0.68,19.08,-42.61,78.76,31.45
74147,0.25,-0.39,0.62,14.05,-23.48,79.85,31.54
74157,0.25,-0.39,0.60,7.28,-0.05,82.09,31.40
74167,0.20,-0.41,0.69,-0.05,22.95,83.21,31.45
74177,0.13,-0.44,0.82,-5.88,35.95,84.18,31.45
74187,0.02,-0.45,0.96,-9.94,36.69,82.93,31.49
74197,-0.08,-0.48,1.10,-12.17,22.27,82.15,31.40
74207,-0.15,-0.54,1.19,-9.66,-0.92,81.85,31.49
74217,-0.15,-0.58,1.25,-4.02,-24.00,80.72,31.40
74227,-0.09,-0.62,1.21,3.13,-42.34,80.24,31.40
74237,-0.00,-0.61,1.19,9.68,-52.05,78.05,31.40
74247,0.00,-0.68,1.13,14.43,-55.97,72.63,31.40
74257,0.06,-0.62,1.15,17.39,-61.44,68.44,31.40
74267,0.08,-0.55,1.04,22.67,-60.67,64.78,31.49
74277,0.08,-0.47,0.98,21.62,-52.03,66.85,31.45
74287,0.07,-0.44,0.95,18.84,-42.46,72.66,31.35
74297,0.06,-0.45,0.97,14.60,-29.34,78.56,31.35
74307,0.00,-0.49,1.00,12.29,-23.28,82.53,31.45
74317,-0.04,-0.55,1.08,12.66,-30.02,80.85,31.45
74327,-0.08,-0.58,1.12,12.18,-52.26,74.08,31.45
74337,-0.09,-0.60,1.15,15.74,-85.95,64.06,31.35
74347,-0.05,-0.54,1.05,24.00,-109.30,55.82,31.45
74357,0.03,-0.45,0.89,29.04,-116.41,56.92,31.35
74367,0.10,-0.39,0.81,27.07,-103.80,67.28,31.40
74377,0.20,-0.38,0.77,22.02,-75.19,79.13,31.40
74387,0.23,-0.44,0.82,17.42,-48.69,84.12,31.40
74397,0.19,-0.50,0.91,13.63,-36.27,82.40,31.40
74407,0.14,-0.53,0.95,15.73,-40.99,77.34,31.40
74417,0.09,-0.55,1.00,19.79,-54.47,70.63,31.40
74427,0.09,-0.49,0.96,21.79,-67.63,67.07,31.49
74437,0.14,-0.43,0.90,24.89,-66.58,71.48,31.40
74447,0.17,-0.41,0.84,23.76,-53.71,79.24,31.40
74457,0.20,-0.43,0.87,22.75,-38.67,84.50,31.40
74467,0.22,-0.45,0.89,19.02,-28.46,84.81,31.49
74477,0.16,-0.46,0.94,18.38,-31.89,81.08,31.35
74487,0.12,-0.46,0.99,17.60,-44.03,77.34,31.35
74497,0.07,-0.44,0.98,19.73,-58.64,72.70,31.35
74507,0.11,-0.41,0.91,23.42,-68.02,74.17,31.35
74517,0.16,-0.38,0.84,23.42,-63.60,79.69,31.35
74527,0.21,-0.38,0.82,20.41,-52.21,86.14,31.35
74537,0.27,-0.38,0.78,18.41,-36.43,92.64,31.40
74547,0.31,-0.38,0.76,15.11,-17.34,97.65,31.45
74557,0.31,-0.41,0.80,14.00,-5.15,96.18,31.40
74567,0.26,-0.48,0.87,12.58,-6.95,87.98,31.40
74577,0.18,-0.46,0.91,10.14,-24.26,75.95,31.40
74587,0.14,-0.40,0.88,10.67,-42.70,68.87,31.49
74597,0.15,-0.32,0.80,9.95,-47.54,72.50,31.40
74607,0.19,-0.31,0.77,7.57,-37.86,82.23,31.40
74617,0.24,-0.36,0.80,4.37,-20.21,91.40,31.31
74627,0.27,-0.43,0.83,1.86,-5.63,93.95,31.40
74637,0.25,-0.47,0.89,0.92,-3.82,90.17,31.40
74647,0.24,-0.52,0.90,3.30,0.12,85.65,31.35
74657,0.19,-0.50,0.96,2.18,-16.66,76.05,31.45
74667,0.18,-0.43,0.94,4.26,-29.71,69.88,31.45
74677,0.16,-0.32,0.86,3.47,-35.19,72.41,31.45
74687,0.17,-0.31,0.83,5.24,-29.33,80.93,31.35
74697,0.22,-0.35,0.81,3.31,-18.08,87.98,31.45
74707,0.23,-0.41,0.86,-1.19,-12.32,87.80,31.40
74717,0.21,-0.44,0.92,-4.23,-14.23,84.67,31.45
74727,0.15,-0.44,0.96,-3.59,-21.94,80.47,31.35
74737,0.17,-0.44,0.97,-2.67,-30.05,76.40,31.40
74747,0.17,-0.45,0.97,0.49,-39.65,73.74,31.31
74757,0.18,-0.47,0.98,1.76,-46.76,72.24,31.40
74767,0.21,-0.45,0.96,1.79,-51.42,72.23,31.40
74777,0.27,-0.45,0.92,0.89,-49.79,74.27,31.40
74787,0.31,-0.47,0.94,1.62,-49.04,73.15,31.40
74797,0.36,-0.47,0.93,2.56,-47.97,69.88,31.40
74807,0.36,-0.45,0.92,3.01,-47.34,69.68,31.40
74817,0.35,-0.46,0.89,6.70,-44.90,70.72,31.31
74827,0.38,-0.48,0.91,8.63,-45.85,70.35,31.31
74837,0.38,-0.49,0.91,8.38,-52.55,65.86,31.35
74847,0.39,-0.47,0.88,9.11,-65.47,58.21,31.35
74857,0.41,-0.44,0.84,7.91,-81.60,50.41,31.45
74867,0.43,-0.39,0.77,6.14,-96.63,44.14,31.35
74877,0.44,-0.38,0.75,3.40,-106.98,42.66,31.45
74887,0.47,-0.40,0.74,1.62,-120.31,41.50,31.35
74897,0.52,-0.45,0.74,0.24,-136.79,35.53,31.45
74907,0.60,-0.46,0.75,-1.44,-152.98,23.56,31.35
74917,0.66,-0.46,0.74,-5.02,-165.60,10.34,31.40
74927,0.69,-0.42,0.70,-6.32,-170.12,0.99,31.40
74937,0.70,-0.37,0.67,-4.98,-156.66,1.82,31.40
74947,0.71,-0.32,0.63,-1.79,-128.02,14.52,31.31
74957,0.69,-0.30,0.65,1.15,-90.52,33.65,31.49
74967,0.69,-0.35,0.70,3.28,-57.77,49.57,31.40
74977,0.67,-0.37,0.81,3.66,-37.42,57.63,31.31
74987,0.62,-0.42,0.88,5.54,-33.86,59.15,31.40
74997,0.62,-0.44,0.90,8.72,-36.23,57.40,31.49
75007,0.60,-0.43,0.89,11.33,-41.25,55.40,31.40
75017,0.60,-0.43,0.86,14.32,-45.60,54.31,31.40
75027,0.62,-0.44,0.82,16.31,-41.86,54.92,31.35
75037,0.63,-0.42,0.83,16.38,-36.72,55.50,31.45
75047,0.59,-0.42,0.82,17.53,-35.80,56.49,31.35
75057,0.54,-0.43,0.81,19.51,-31.44,58.70,31.35
75067,0.48,-0.42,0.80,21.39,-29.91,64.61,31.26
75077,0.43,-0.37,0.79,25.21,-26.58,73.25,31.45
75087,0.42,-0.34,0.77,26.31,-25.48,79.56,31.40
75097,0.43,-0.30,0.74,24.21,-25.68,82.08,31.35
75107,0.47,-0.28,0.71,20.43,-26.05,82.09,31.35
75117,0.50,-0.27,0.67,13.39,-26.70,81.62,31.26
75127,0.55,-0.31,0.68,4.56,-24.64,82.35,31.40
75137,0.56,-0.37,0.68,-2.38,-18.81,83.69,31.40
75147,0.58,-0.39,0.70,-6.66,-9.51,86.69,31.40
75157,0.58,-0.42,0.75,-5.77,3.21,92.08,31.40
75167,0.53,-0.47,0.81,0.61,17.36,99.33,31.40
75177,0.50,-0.51,0.82,8.15,27.21,105.66,31.31
75187,0.45,-0.49,0.86,13.27,28.18,107.94,31.31
75197,0.43,-0.48,0.84,13.47,16.98,104.50,31.31
75207,0.42,-0.47,0.86,8.20,-4.53,91.80,31.49
75217,0.45,-0.48,0.80,-3.33,-27.04,76.02,31.45
75227,0.48,-0.47,0.80,-12.87,-42.00,61.98,31.45
75237,0.53,-0.47,0.79,-16.34,-44.44,52.38,31.35
75247,0.55,-0.47,0.77,-17.63,-40.31,47.05,31.45
75257,0.53,-0.49,0.77,-17.59,-34.29,45.13,31.35
75267,0.53,-0.50,0.80,-14.92,-23.11,45.57,31.35
75277,0.51,-0.51,0.83,-13.34,-13.24,46.95,31.45
75287,0.47,-0.53,0.88,-12.03,-5.62,46.58,31.35
75297,0.44,-0.55,0.92,-10.15,-3.13,46.09,31.40
75307,0.40,-0.57,0.93,-7.79,-5.34,45.21,31.35
75317,0.37,-0.55,0.92,-4.38,-6.78,45.59,31.40
75327,0.35,-0.53,0.91,-2.14,-8.00,47.95,31.40
75337,0.33,-0.49,0.89,-2.31,-10.84,51.31,31.31
75347,0.33,-0.51,0.90,-4.58,-15.36,54.76,31.40
75357,0.34,-0.54,0.91,-7.02,-21.62,56.44,31.40
75367,0.37,-0.56,0.90,-8.79,-25.36,56.60,31.40
75377,0.36,-0.55,0.93,-11.86,-31.92,54.64,31.49
75387,0.35,-0.57,0.94,-12.87,-37.08,51.56,31.49
75397,0.32,-0.55,0.97,-14.26,-42.60,51.68,31.31
75407,0.32,-0.55,0.95,-12.58,-46.75,55.08,31.35
75417,0.34,-0.57,0.92,-10.37,-44.53,60.61,31.35
75427,0.37,-0.56,0.91,-7.92,-42.26,66.37,31.45
75437,0.41,-0.59,0.90,-8.66,-40.84,67.69,31.45
75447,0.43,-0.62,0.94,-9.59,-43.16,62.79,31.45
75457,0.43,-0.63,0.91,-9.71,-49.57,57.28,31.45
75467,0.44,-0.68,0.91,-8.24,-56.49,52.40,31.45
75477,0.48,-0.69,0.88,-2.61,-57.19,49.60,31.45
75487,0.50,-0.70,0.88,4.85,-52.38,50.79,31.45
75497,0.55,-0.67,0.79,7.36,-44.43,52.60,31.35
75507,0.54,-0.68,0.80,12.24,-36.99,52.09,31.40
75517,0.54,-0.64,0.78,15.73,-31.10,50.52,31.31
75527,0.52,-0.64,0.73,13.76,-38.79,43.36,31.40
75537,0.51,-0.63,0.73,8.64,-42.90,35.94,31.40
75547,0.53,-0.63,0.70,1.50,-54.55,25.33,31.31
75557,0.62,-0.61,0.69,-4.55,-49.34,19.27,31.31
75567,0.51,-0.63,0.63,0.47,-59.62,19.48,31.31
75577,0.59,-0.69,0.65,2.82,-48.46,22.56,31.40
75587,0.57,-0.67,0.70,7.34,-37.15,25.85,31.31
75597,0.58,-0.68,0.68,12.17,-30.67,26.02,31.40
75607,0.59,-0.66,0.70,10.53,-28.79,22.58,31.40
75617,0.58,-0.64,0.68,5.80,-37.73,16.49,31.35
75627,0.56,-0.62,0.68,-1.53,-49.07,9.54,31.45
75637,0.53,-0.62,0.68,-7.42,-59.68,4.38,31.35
75647,0.59,-0.61,0.71,-5.59,-52.14,4.58,31.35
75657,0.60,-0.60,0.70,0.78,-39.34,7.66,31.45
75667,0.57,-0.60,0.71,5.04,-27.91,10.34,31.54
75677,0.57,-0.59,0.71,8.85,-19.22,10.70,31.40
75687,0.56,-0.58,0.72,9.44,-14.23,8.08,31.35
75697,0.56,-0.56,0.67,5.76,-15.47,3.47,31.35
75707,0.55,-0.53,0.67,-0.92,-16.53,-0.02,31.49
75717,0.53,-0.53,0.66,-5.34,-17.10,-0.08,31.40
75727,0.52,-0.52,0.65,-11.05,-10.60,2.35,31.31
75737,0.50,-0.54,0.72,-13.04,-5.08,7.79,31.40
75747,0.49,-0.56,0.75,-10.95,-2.20,11.53,31.49
75757,0.50,-0.59,0.77,-10.12,-2.49,12.44,31.40
75767,0.50,-0.60,0.78,-8.23,-6.09,11.24,31.40
75777,0.52,-0.60,0.77,-6.61,-7.80,9.30,31.40
75787,0.54,-0.60,0.76,-7.36,-8.93,7.47,31.40
75797,0.56,-0.59,0.74,-7.51,-6.96,6.03,31.35
75807,0.57,-0.59,0.74,-7.44,-2.63,5.16,31.45
75817,0.58,-0.60,0.74,-7.37,1.62,2.89,31.35
75827,0.58,-0.58,0.72,-8.90,3.89,-0.05,31.35
75837,0.55,-0.60,0.76,-10.20,1.24,-2.81,31.45
75847,0.52,-0.61,0.76,-10.92,-3.10,-3.10,31.45
75857,0.50,-0.62,0.78,-11.54,-5.77,-1.80,31.45
75867,0.51,-0.64,0.80,-10.56,-6.03,0.11,31.35
75877,0.53,-0.64,0.78,-9.19,-4.75,1.63,31.35
75887,0.57,-0.64,0.77,-7.63,-2.99,2.47,31.40
75897,0.60,-0.63,0.73,-6.34,0.61,1.73,31.40
75907,0.63,-0.61,0.71,-5.71,4.40,0.29,31.40
75917,0.63,-0.61,0.70,-7.63,6.76,-2.93,31.40
75927,0.61,-0.60,0.69,-10.98,6.52,-6.90,31.40
75937,0.60,-0.61,0.71,-14.26,3.13,-10.37,31.40
75947,0.58,-0.62,0.73,-16.12,1.71,-13.42,31.49
75957,0.57,-0.65,0.75,-15.30,1.28,-14.00,31.40
75967,0.55,-0.66,0.77,-12.18,3.33,-12.29,31.45
75977,0.56,-0.67,0.77,-7.04,7.21,-10.52,31.45
75987,0.57,-0.67,0.76,-2.76,11.95,-9.13,31.45
75997,0.59,-0.63,0.74,0.14,16.24,-8.81,31.45
76007,0.61,-0.61,0.72,1.59,19.80,-9.04,31.35
76017,0.61,-0.60,0.71,1.82,22.87,-10.78,31.35
76027,0.62,-0.60,0.72,0.53,24.12,-14.06,31.45
76037,0.61,-0.63,0.73,1.54,22.95,-17.56,31.45
76047,0.62,-0.64,0.74,2.26,25.48,-21.16,31.35
76057,0.63,-0.65,0.76,5.47,29.42,-22.63,31.31
76067,0.62,-0.66,0.76,10.06,34.50,-21.79,31.31
76077,0.62,-0.65,0.77,13.21,39.57,-21.28,31.40
76087,0.62,-0.65,0.74,15.62,43.24,-22.55,31.40
76097,0.62,-0.64,0.74,15.48,44.02,-25.36,31.40
76107,0.62,-0.62,0.74,13.11,41.18,-29.66,31.49
76117,0.61,-0.60,0.72,9.37,38.17,-34.52,31.40
76127,0.61,-0.61,0.71,6.15,35.48,-38.40,31.49
76137,0.59,-0.61,0.72,4.02,33.48,-41.39,31.54
76147,0.58,-0.61,0.73,5.24,36.53,-42.15,31.45
76157,0.56,-0.60,0.74,8.49,43.51,-40.08,31.45
76167,0.54,-0.60,0.75,12.12,49.66,-37.42,31.45
76177,0.52,-0.59,0.76,13.27,50.61,-37.16,31.35
76187,0.50,-0.58,0.79,10.70,44.38,-39.63,31.40
76197,0.49,-0.56,0.80,6.20,34.37,-43.24,31.45
76207,0.48,-0.54,0.79,0.02,21.40,-46.05,31.35
76217,0.51,-0.53,0.79,-4.20,16.60,-45.39,31.45
76227,0.53,-0.56,0.79,-4.24,17.95,-43.05,31.40
76237,0.56,-0.58,0.81,-0.05,28.02,-39.56,31.40
76247,0.57,-0.58,0.81,5.77,41.57,-37.36,31.40
76257,0.55,-0.56,0.81,9.73,50.85,-37.02,31.40
76267,0.54,-0.54,0.82,10.17,54.08,-40.35,31.40
76277,0.51,-0.52,0.80,6.79,50.17,-45.74,31.40
76287,0.49,-0.51,0.81,2.14,41.51,-51.22,31.49
76297,0.48,-0.50,0.80,-1.89,37.63,-53.62,31.31
76307,0.49,-0.49,0.78,-4.58,36.15,-52.75,31.35
76317,0.49,-0.50,0.78,-5.57,38.17,-50.50,31.35
76327,0.50,-0.53,0.80,-4.32,43.39,-48.09,31.45
76337,0.48,-0.53,0.81,-3.34,45.62,-46.38,31.45
76347,0.44,-0.52,0.83,-1.39,47.40,-44.18,31.35
76357,0.43,-0.51,0.86,1.33,50.85,-42.26,31.45
76367,0.40,-0.48,0.85,0.92,47.56,-41.54,31.45
76377,0.41,-0.46,0.85,-0.98,42.84,-41.91,31.45
76387,0.42,-0.45,0.82,-5.15,36.32,-42.60,31.45
76397,0.43,-0.46,0.83,-6.11,33.80,-42.89,31.40
76407,0.46,-0.47,0.81,-7.19,33.31,-41.51,31.40
76417,0.47,-0.50,0.81,-7.74,35.57,-38.23,31.49
76427,0.49,-0.52,0.84,-4.00,40.47,-35.25,31.49
76437,0.49,-0.52,0.83,-1.56,44.37,-34.43,31.40
76447,0.50,-0.50,0.83,-1.21,42.34,-37.22,31.40
76457,0.50,-0.48,0.83,-2.60,40.67,-41.44,31.40
76467,0.49,-0.45,0.79,-4.99,37.02,-45.10,31.40
76477,0.52,-0.42,0.73,-8.85,38.61,-47.69,31.40
76487,0.52,-0.44,0.71,-13.15,42.87,-48.41,31.40
76497,0.48,-0.46,0.74,-14.50,46.47,-45.91,31.45
76507,0.43,-0.49,0.80,-11.02,51.80,-40.72,31.45
76517,0.40,-0.51,0.85,-5.95,54.93,-35.60,31.45
76527,0.38,-0.51,0.89,-2.35,51.40,-33.77,31.45
76537,0.37,-0.49,0.89,-1.27,41.95,-35.21,31.45
76547,0.39,-0.46,0.86,-0.24,36.08,-36.52,31.45
76557,0.41,-0.44,0.81,-0.23,32.81,-34.99,31.35
76567,0.42,-0.43,0.80,0.02,36.60,-30.93,31.40
76577,0.44,-0.45,0.78,1.86,45.71,-25.22,31.54
76587,0.43,-0.48,0.82,5.57,53.56,-21.74,31.40
76597,0.42,-0.48,0.84,8.52,58.96,-22.43,31.49
76607,0.41,-0.46,0.88,10.52,59.68,-26.14,31.40
76617,0.37,-0.43,0.88,9.10,54.58,-31.21,31.40
76627,0.34,-0.39,0.87,6.38,48.12,-34.75,31.31
76637,0.33,-0.37,0.87,2.00,43.39,-36.47,31.40
76647,0.33,-0.36,0.86,-1.97,39.59,-36.32,31.40
76657,0.37,-0.39,0.86,-6.35,36.99,-36.95,31.49
76667,0.39,-0.43,0.85,-9.10,34.75,-38.18,31.40
76677,0.44,-0.45,0.82,-7.31,37.42,-38.34,31.45
76687,0.47,-0.48,0.81,-6.29,43.47,-39.27,31.45
76697,0.47,-0.48,0.87,-7.28,47.60,-42.46,31.45
76707,0.44,-0.48,0.90,-8.72,48.12,-47.30,31.45
76717,0.42,-0.48,0.93,-7.34,44.95,-52.47,31.35
76727,0.41,-0.47,0.90,-6.14,43.68,-56.35,31.45
76737,0.39,-0.46,0.89,-4.58,45.63,-57.51,31.49
76747,0.38,-0.45,0.86,-2.41,49.21,-56.27,31.45
76757,0.39,-0.44,0.85,-2.14,54.87,-56.09,31.54
76767,0.38,-0.44,0.87,-3.22,56.63,-58.32,31.40
76777,0.36,-0.44,0.88,-5.25,54.87,-61.85,31.49
76787,0.32,-0.43,0.89,-7.30,51.80,-65.95,31.49
76797,0.31,-0.44,0.90,-6.52,48.66,-68.05,31.40
76807,0.29,-0.42,0.90,-6.23,47.71,-69.33,31.40
76817,0.25,-0.41,0.91,-5.08,47.44,-69.01,31.49
76827,0.23,-0.40,0.91,-3.36,47.63,-67.37,31.49
76837,0.19,-0.40,0.87,-1.62,48.06,-63.37,31.49
76847,0.18,-0.39,0.88,-1.36,47.22,-58.63,31.49
76857,0.18,-0.38,0.87,-4.14,43.19,-55.01,31.40
76867,0.17,-0.37,0.89,-6.58,37.45,-55.56,31.45
76877,0.17,-0.38,0.92,-8.72,28.35,-60.00,31.54
76887,0.15,-0.36,0.91,-10.47,19.24,-64.92,31.45
76897,0.13,-0.36,0.86,-10.69,16.58,-67.07,31.35
76907,0.08,-0.34,0.92,-7.54,11.68,-64.46,31.45
76917,0.10,-0.32,0.88,-2.56,23.42,-57.04,31.35
76927,0.10,-0.29,0.85,0.46,34.24,-48.63,31.45
76937,0.11,-0.28,0.85,-0.12,41.56,-42.06,31.45
76947,0.13,-0.26,0.84,-4.96,41.66,-39.07,31.40
76957,0.18,-0.24,0.84,-13.45,36.43,-38.84,31.31
76967,0.28,-0.27,0.81,-22.70,34.58,-39.68,31.40
76977,0.30,-0.31,0.91,-29.60,33.91,-42.60,31.49
76987,0.33,-0.38,0.99,-30.46,36.06,-44.81,31.40
76997,0.34,-0.46,1.06,-25.85,41.59,-47.30,31.49
77007,0.34,-0.52,1.12,-17.71,44.72,-51.97,31.49
77017,0.33,-0.53,1.14,-10.21,45.11,-57.97,31.49
77027,0.30,-0.50,1.12,-5.40,43.16,-62.35,31.49
77037,0.31,-0.48,1.07,0.11,47.01,-65.80,31.49
77047,0.30,-0.43,1.00,2.21,51.19,-68.85,31.54
77057,0.29,-0.39,0.96,0.69,55.95,-71.45,31.45
77067,0.22,-0.37,0.94,-1.51,58.08,-73.24,31.45
77077,0.19,-0.38,0.93,-2.41,59.18,-73.02,31.45
77087,0.15,-0.40,0.96,-1.79,59.97,-72.32,31.45
77097,0.11,-0.40,0.98,-1.77,58.89,-71.95,31.45
77107,0.08,-0.40,1.01,-2.14,55.98,-71.59,31.45
77117,0.05,-0.42,1.04,1.63,48.53,-70.90,31.49
77127,0.08,-0.41,1.03,3.98,44.55,-70.24,31.54
77137,0.11,-0.41,1.02,4.67,40.85,-69.83,31.49
77147,0.14,-0.38,0.99,4.05,40.20,-69.62,31.40
77157,0.17,-0.38,0.94,2.82,43.44,-68.79,31.49
77167,0.19,-0.39,0.91,1.77,48.95,-68.50,31.40
77177,0.19,-0.35,0.91,-1.88,54.18,-70.32,31.40
77187,0.15,-0.35,0.95,-5.10,57.45,-72.47,31.49
77197,0.09,-0.35,1.01,-6.17,58.61,-72.78,31.49
77207,0.03,-0.35,1.06,-6.52,57.92,-71.65,31.40
77217,-0.01,-0.37,1.10,-4.58,54.53,-69.83,31.49
77227,-0.04,-0.37,1.11,-1.88,50.40,-67.10,31.45
77237,-0.03,-0.38,1.10,1.11,44.61,-63.42,31.45
77247,-0.02,-0.37,1.06,1.34,36.89,-61.73,31.45
77257,0.02,-0.36,1.03,-1.05,28.46,-63.71,31.54
77267,0.07,-0.31,0.96,-5.25,25.91,-65.77,31.54
77277,0.10,-0.28,0.92,-9.10,31.51,-66.23,31.45
77287,0.08,-0.26,0.94,-12.99,43.02,-64.11,31.45
77297,0.02,-0.29,1.00,-16.46,49.77,-61.74,31.45
77307,-0.03,-0.31,1.05,-18.75,52.02,-60.47,31.45
77317,-0.07,-0.34,1.12,-18.70,46.03,-58.98,31.45
77327,-0.09,-0.37,1.16,-16.03,38.96,-57.68,31.40
77337,-0.07,-0.39,1.15,-12.64,31.68,-56.61,31.59
77347,-0.02,-0.39,1.12,-7.44,26.79,-55.30,31.49
77357,0.03,-0.37,1.08,-4.24,27.01,-54.58,31.49
77367,0.10,-0.33,1.03,-4.53,32.12,-55.02,31.49
77377,0.11,-0.32,1.02,-6.00,40.00,-56.44,31.40
77387,0.06,-0.32,1.05,-7.37,43.44,-58.18,31.40
77397,-0.02,-0.34,1.10,-6.85,42.17,-59.69,31.49
77407,-0.07,-0.37,1.10,-3.69,38.87,-60.75,31.49
77417,-0.10,-0.36,1.09,-0.99,30.64,-61.25,31.54
77427,-0.09,-0.35,1.04,-0.32,23.39,-60.78,31.45
77437,-0.04,-0.33,0.98,-0.23,21.91,-60.03,31.35
77447,0.02,-0.29,0.94,-2.63,25.94,-58.93,31.45
77457,0.03,-0.29,0.95,-5.53,32.08,-57.50,31.45
77467,0.01,-0.29,0.96,-6.99,39.83,-56.02,31.45
77477,-0.02,-0.33,1.01,-6.93,42.67,-55.39,31.54
77487,-0.05,-0.34,1.05,-6.23,40.12,-56.75,31.45
77497,-0.07,-0.35,1.07,-4.95,33.79,-59.21,31.49
77507,-0.08,-0.34,1.06,-3.08,27.68,-60.70,31.40
77517,-0.04,-0.31,1.03,-2.66,29.34,-59.37,31.49
77527,-0.02,-0.30,1.02,-4.90,32.99,-59.33,31.40
77537,-0.03,-0.32,1.04,-5.19,37.48,-58.89,31.49
77547,-0.04,-0.34,1.06,-3.40,41.50,-59.85,31.49
77557,-0.08,-0.35,1.07,-0.29,39.95,-60.24,31.40
77567,-0.10,-0.33,1.07,3.44,38.44,-60.98,31.49
77577,-0.12,-0.28,1.03,5.05,36.34,-58.21,31.40
77587,-0.08,-0.24,0.99,3.59,39.27,-54.50,31.40
77597,-0.04,-0.22,1.00,0.85,44.67,-52.69,31.40
77607,-0.03,-0.26,1.05,-3.02,48.12,-54.12,31.45
77617,-0.03,-0.33,1.11,-5.33,45.60,-59.98,31.45
77627,-0.05,-0.38,1.15,-4.47,39.76,-67.97,31.45
77637,-0.04,-0.38,1.13,-3.40,32.44,-77.39,31.45
77647,-0.05,-0.38,1.10,-5.37,21.92,-88.40,31.45
77657,-0.11,-0.39,1.08,-7.69,9.07,-91.51,31.54
77667,-0.14,-0.33,1.07,-4.06,5.76,-85.66,31.49
77677,-0.13,-0.30,1.02,-0.63,14.61,-74.85,31.54
77687,-0.13,-0.27,1.00,-0.90,22.23,-64.73,31.45
77697,-0.12,-0.25,1.00,-5.11,27.92,-58.72,31.40
77707,-0.12,-0.27,1.01,-7.44,27.95,-55.57,31.40
77717,-0.08,-0.28,1.00,-8.50,26.61,-55.28,31.49
77727,-0.06,-0.28,1.01,-11.85,25.25,-58.61,31.40
77737,-0.08,-0.32,1.04,-15.05,18.95,-65.01,31.49
77747,-0.11,-0.33,1.04,-14.73,12.12,-68.06,31.49
77757,-0.08,-0.31,1.00,-12.26,12.34,-66.37,31.49
77767,-0.04,-0.30,0.98,-10.21,19.47,-62.84,31.40
77777,-0.04,-0.32,1.00,-8.40,29.39,-58.55,31.49
77787,-0.09,-0.34,1.04,-6.27,34.92,-56.06,31.35
77797,-0.15,-0.36,1.08,-3.59,33.31,-54.37,31.35
77807,-0.19,-0.35,1.08,1.66,26.82,-52.79,31.45
77817,-0.19,-0.31,1.04,4.66,23.62,-50.99,31.35
77827,-0.18,-0.27,1.00,3.50,19.04,-50.26,31.45
77837,-0.17,-0.25,0.98,-0.02,13.02,-50.40,31.45
77847,-0.14,-0.24,0.93,-1.92,11.27,-48.58,31.45
77857,-0.10,-0.25,0.90,-2.84,18.89,-45.33,31.45
77867,-0.12,-0.27,0.90,-2.93,28.95,-42.52,31.45
77877,-0.16,-0.28,0.93,-3.27,35.08,-42.38,31.49
77887,-0.23,-0.28,0.96,-7.11,32.02,-44.49,31.40
77897,-0.28,-0.26,1.02,-11.22,20.70,-47.77,31.31
77907,-0.29,-0.24,1.04,-13.80,8.99,-46.60,31.40
77917,-0.28,-0.22,1.03,-16.26,2.72,-39.83,31.49
77927,-0.25,-0.23,1.09,-16.03,-4.02,-31.25,31.40
77937,-0.17,-0.26,0.98,-17.39,12.31,-21.44,31.40
77947,-0.14,-0.30,1.04,-16.79,10.11,-16.17,31.40
77957,-0.07,-0.34,1.04,-16.40,14.02,-16.18,31.54
77967,-0.03,-0.36,1.05,-16.90,10.38,-19.79,31.45
77977,0.00,-0.38,1.10,-14.81,10.35,-24.85,31.45
77987,0.02,-0.41,1.11,-12.12,10.90,-30.43,31.45
77997,0.01,-0.43,1.13,-10.99,10.49,-35.44,31.45
78007,0.00,-0.45,1.14,-7.95,7.36,-40.43,31.49
78017,0.01,-0.42,1.08,-4.93,5.07,-46.79,31.45
78027,0.03,-0.35,1.01,-4.31,5.28,-50.67,31.45
78037,0.05,-0.31,0.95,-4.43,12.20,-52.70,31.49
78047,0.03,-0.29,0.94,-6.12,24.82,-51.57,31.40
78057,-0.03,-0.32,0.96,-7.37,33.91,-49.40,31.49
78067,-0.08,-0.35,0.99,-9.62,37.34,-50.98,31.40
78077,-0.12,-0.37,1.02,-11.76,30.79,-56.20,31.40
78087,-0.12,-0.37,1.01,-13.94,20.05,-65.21,31.49
78097,-0.10,-0.39,0.99,-16.87,8.63,-73.79,31.40
78107,-0.09,-0.35,0.94,-18.41,0.21,-77.48,31.49
78117,-0.10,-0.31,0.91,-19.07,-1.47,-74.32,31.40
78127,-0.09,-0.28,0.88,-19.13,8.66,-65.83,31.45
78137,-0.10,-0.29,0.91,-20.05,17.74,-55.92,31.45
78147,-0.12,-0.30,0.93,-20.20,23.62,-48.05,31.45
78157,-0.10,-0.28,0.90,-20.66,29.25,-42.21,31.45
78167,-0.06,-0.29,0.89,-25.13,32.89,-41.56,31.45
78177,-0.06,-0.33,0.90,-31.76,28.47,-46.84,31.54
78187,-0.08,-0.35,0.92,-38.06,20.53,-52.64,31.45
78197,-0.13,-0.37,0.93,-37.62,19.53,-50.29,31.45
78207,-0.17,-0.39,0.99,-28.99,26.38,-40.67,31.45
78217,-0.18,-0.38,1.01,-18.93,38.52,-27.86,31.49
78227,-0.16,-0.37,0.99,-13.79,44.12,-17.18,31.49
78237,-0.11,-0.36,0.98,-10.99,45.57,-9.79,31.40
78247,-0.05,-0.37,0.97,-9.91,47.44,-8.05,31.49
78257,-0.03,-0.43,0.98,-10.47,43.31,-14.34,31.49
78267,-0.06,-0.45,1.01,-12.43,34.02,-23.92,31.40
78277,-0.12,-0.42,1.00,-13.88,22.34,-31.56,31.40
78287,-0.14,-0.41,1.00,-13.16,12.84,-35.53,31.49
78297,-0.17,-0.40,0.98,-12.37,6.38,-35.01,31.49
78307,-0.17,-0.38,0.96,-12.32,9.33,-30.14,31.35
78317,-0.18,-0.39,0.97,-12.76,17.05,-22.50,31.45
78327,-0.21,-0.41,1.02,-13.53,22.14,-15.44,31.45
78337,-0.23,-0.45,1.07,-12.32,21.45,-11.89,31.45
78347,-0.25,-0.47,1.14,-8.37,13.83,-10.87,31.54
78357,-0.26,-0.47,1.15,-1.77,0.37,-10.69,31.35
78367,-0.23,-0.44,1.09,2.34,-10.18,-10.41,31.45
78377,-0.18,-0.42,1.06,3.15,-16.82,-8.79,31.45
78387,-0.13,-0.41,1.04,2.90,-16.95,-7.56,31.49
78397,-0.07,-0.42,1.00,2.41,-11.68,-6.34,31.40
78407,-0.03,-0.39,0.96,0.85,-2.66,-7.04,31.40
78417,-0.00,-0.39,0.96,-1.71,4.89,-10.66,31.59
78427,-0.02,-0.39,0.96,-5.62,8.20,-15.95,31.49
78437,-0.07,-0.39,0.97,-9.19,8.95,-18.84,31.49
78447,-0.11,-0.38,0.97,-10.08,9.28,-18.20,31.49
78457,-0.15,-0.38,0.99,-11.22,10.40,-16.02,31.49
78467,-0.17,-0.41,1.03,-10.47,9.86,-12.40,31.40
78477,-0.19,-0.45,1.07,-7.83,7.10,-9.30,31.45
78487,-0.16,-0.47,1.09,-1.82,3.34,-7.51,31.45
78497,-0.18,-0.44,1.10,-0.55,-6.12,-7.18,31.45
78507,-0.15,-0.42,1.07,2.50,-10.96,-6.15,31.45
78517,-0.12,-0.41,1.03,4.08,-11.82,-3.34,31.45
78527,-0.10,-0.39,1.01,3.53,-9.60,-0.98,31.35
78537,-0.07,-0.40,1.00,2.73,-6.47,1.05,31.45
78547,-0.04,-0.40,0.98,2.05,-2.66,1.57,31.45
78557,-0.04,-0.41,0.99,0.72,0.60,-0.89,31.31
78567,-0.04,-0.40,1.00,-1.91,-0.63,-5.95,31.40
78577,-0.05,-0.41,1.00,-4.40,-3.13,-9.95,31.40
78587,-0.08,-0.40,1.00,-4.18,-3.51,-10.34,31.49
78597,-0.08,-0.41,1.00,-2.31,-1.73,-9.05,31.49
