Millis,Acce_X,Acce_Y,Acce_Z,Gyro_X,Gyro_Y,Gyro_Z,Temp
105077,-0.02,-1.09,-0.03,4.37,-4.98,-10.95,31.54
105087,-0.05,-1.09,-0.03,4.87,-7.45,-12.29,31.54
105097,-0.05,-1.10,-0.03,7.63,-9.39,-10.81,31.45
105107,-0.06,-1.11,-0.04,9.02,-8.44,-9.18,31.40
105117,-0.05,-1.11,-0.02,8.98,-8.93,-7.79,31.54
105127,-0.07,-1.09,-0.04,9.39,-9.62,-6.27,31.59
105137,-0.08,-1.10,-0.04,8.17,-11.54,-5.80,31.49
105147,-0.09,-1.12,-0.03,6.50,-13.85,-6.60,31.59
105157,-0.09,-1.12,-0.03,4.32,-16.08,-7.68,31.59
105167,-0.08,-1.11,-0.03,4.08,-16.67,-8.03,31.49
105177,-0.09,-1.10,-0.01,5.33,-17.25,-9.01,31.49
105187,-0.13,-1.09,0.02,5.51,-20.29,-11.50,31.49
105197,-0.16,-1.06,0.03,8.44,-24.44,-11.40,31.49
105207,-0.25,-1.06,0.00,12.52,-29.27,-7.57,31.45
105217,-0.16,-1.04,-0.02,12.75,-27.07,-0.84,31.54
105227,-0.21,-0.97,-0.01,10.81,-29.33,6.55,31.45
105237,-0.18,-1.03,0.02,11.94,-28.20,13.57,31.64
105247,-0.17,-1.05,0.02,14.05,-29.25,18.15,31.45
105257,-0.15,-1.09,0.02,14.47,-32.96,18.15,31.54
105267,-0.11,-1.10,0.03,16.95,-37.65,15.13,31.54
105277,-0.07,-1.10,0.02,17.40,-40.81,7.54,31.49
105287,-0.06,-1.11,0.00,16.93,-44.76,-1.31,31.49
105297,-0.04,-1.08,-0.01,16.61,-48.09,-9.02,31.49
105307,-0.02,-1.07,-0.03,15.16,-49.18,-16.38,31.49
105317,-0.03,-1.07,-0.03,12.29,-52.49,-24.24,31.49
105327,-0.05,-1.05,-0.04,8.44,-51.40,-28.58,31.59
105337,-0.05,-0.99,-0.05,7.62,-46.47,-25.68,31.49
105347,-0.09,-1.07,0.03,7.71,-52.27,-23.88,31.49
105357,-0.08,-1.06,-0.02,8.89,-48.17,-17.18,31.49
105367,-0.07,-1.06,0.00,8.90,-45.25,-12.52,31.54
105377,-0.05,-1.10,0.02,9.63,-45.94,-11.39,31.54
105387,-0.03,-1.07,0.02,9.79,-46.40,-14.21,31.45
105397,-0.02,-1.08,0.01,10.02,-49.59,-17.57,31.54
105407,-0.00,-1.07,0.01,10.61,-50.64,-21.11,31.49
105417,-0.01,-1.07,0.01,11.39,-53.24,-23.85,31.64
105427,0.00,-1.06,-0.01,12.14,-52.73,-25.05,31.45
105437,0.02,-1.05,-0.02,11.89,-52.90,-25.50,31.59
105447,0.00,-1.03,0.00,10.06,-54.50,-26.93,31.59
105457,0.01,-1.03,0.00,10.05,-54.85,-25.45,31.40
105467,0.00,-1.02,-0.01,10.79,-56.32,-21.10,31.49
105477,-0.00,-1.03,-0.01,12.23,-54.81,-14.46,31.49
105487,0.02,-1.04,-0.02,14.21,-51.42,-7.25,31.59
105497,0.01,-1.04,-0.02,13.36,-44.23,-1.97,31.49
105507,0.09,-1.06,0.01,12.87,-41.60,-0.95,31.54
105517,0.12,-1.03,0.00,11.94,-40.58,-4.34,31.54
105527,0.14,-1.01,-0.01,10.40,-41.47,-9.88,31.45
105537,0.14,-0.98,-0.03,9.74,-42.31,-14.15,31.45
105547,0.09,-0.97,-0.02,8.76,-44.92,-15.65,31.54
105557,0.03,-0.94,-0.00,8.21,-43.24,-11.65,31.45
105567,-0.05,-0.91,0.03,10.85,-41.44,0.02,31.45
105577,-0.08,-0.91,0.02,15.21,-38.35,16.44,31.40
105587,-0.09,-0.95,0.04,20.34,-38.12,31.68,31.59
105597,-0.05,-0.96,0.02,22.09,-37.65,43.22,31.49
105607,0.03,-1.00,0.02,21.39,-34.27,46.85,31.49
105617,0.08,-1.01,0.03,17.92,-37.47,40.53,31.49
105627,0.10,-1.01,0.02,13.56,-34.79,29.89,31.49
105637,0.13,-1.00,0.01,5.66,-39.07,13.10,31.59
105647,0.07,-0.96,0.02,-0.76,-42.52,-0.49,31.59
105657,0.06,-0.98,0.02,-2.85,-50.23,-10.82,31.59
105667,0.05,-1.00,0.01,-6.03,-54.35,-17.86,31.54
105677,0.04,-0.99,0.02,-9.97,-56.12,-22.27,31.45
105687,0.02,-0.99,0.06,-9.36,-56.70,-22.56,31.54
105697,0.01,-0.99,0.04,-8.67,-53.82,-18.96,31.45
105707,0.01,-1.01,0.04,-8.05,-51.97,-14.63,31.45
105717,0.03,-1.02,0.03,-7.21,-49.65,-12.43,31.54
105727,0.03,-1.02,0.05,-8.21,-50.21,-13.42,31.45
105737,0.02,-1.03,0.08,-9.57,-53.11,-16.63,31.45
105747,-0.01,-1.05,0.09,-9.28,-57.24,-19.16,31.49
105757,-0.00,-1.04,0.07,-6.37,-59.68,-18.61,31.49
105767,0.02,-1.02,0.05,-3.05,-56.85,-13.28,31.40
105777,0.04,-1.02,0.05,0.18,-54.15,-7.54,31.49
105787,0.05,-1.01,0.05,2.78,-52.64,-3.77,31.49
105797,0.07,-1.02,0.03,5.68,-52.11,-3.60,31.59
105807,0.06,-1.00,0.02,5.83,-50.05,-5.01,31.49
105817,0.06,-1.00,0.01,1.85,-55.04,-7.95,31.54
105827,0.06,-1.01,0.01,-1.02,-58.85,-11.40,31.54
105837,0.04,-0.99,0.01,-5.28,-59.44,-12.24,31.45
105847,-0.01,-0.99,0.04,-7.39,-64.09,-8.37,31.45
105857,0.00,-1.01,0.02,-4.96,-61.89,-0.49,31.54
105867,0.03,-1.02,0.04,-2.00,-59.44,6.17,31.45
105877,0.08,-1.01,0.02,1.04,-57.40,9.30,31.49
105887,0.11,-1.01,0.03,1.65,-57.27,6.52,31.54
105897,0.13,-1.01,0.00,0.49,-54.85,2.61,31.49
105907,0.11,-1.01,-0.01,-1.65,-62.90,-2.17,31.49
105917,0.09,-1.01,-0.04,-3.21,-64.75,-1.28,31.59
105927,0.09,-1.02,-0.02,-5.76,-62.66,5.42,31.40
105937,0.11,-1.00,-0.00,-6.87,-58.56,13.40,31.49
105947,0.10,-1.00,0.01,-3.62,-54.99,19.01,31.49
105957,0.09,-0.98,-0.00,1.62,-54.14,24.12,31.49
105967,0.08,-0.93,-0.04,6.50,-58.08,29.94,31.54
105977,0.11,-0.88,-0.08,10.14,-61.04,35.21,31.54
105987,0.12,-0.81,-0.12,10.14,-61.56,41.65,31.54
105997,0.17,-0.74,-0.16,6.14,-56.06,48.09,31.45
106007,0.18,-0.75,-0.15,-0.37,-53.34,50.02,31.45
106017,0.19,-0.81,-0.12,-7.27,-52.56,46.98,31.45
106027,0.20,-0.89,-0.12,-13.56,-52.79,39.73,31.45
106037,0.21,-0.98,-0.07,-18.44,-55.66,27.91,31.49
106047,0.22,-1.03,-0.03,-20.27,-57.86,13.04,31.59
106057,0.22,-1.06,-0.02,-21.69,-61.45,-2.78,31.49
106067,0.21,-1.07,-0.03,-25.27,-61.98,-16.52,31.49
106077,0.18,-1.10,-0.01,-31.54,-60.63,-27.65,31.49
106087,0.11,-1.12,0.03,-35.66,-59.59,-35.39,31.49
106097,0.04,-1.16,0.07,-36.58,-59.39,-38.02,31.49
106107,0.00,-1.16,0.08,-34.35,-59.94,-36.82,31.49
106117,-0.02,-1.15,0.09,-30.58,-57.65,-36.50,31.54
106127,-0.02,-1.11,0.10,-28.29,-55.65,-37.33,31.45
106137,-0.03,-1.05,0.10,-28.52,-56.06,-41.34,31.54
106147,-0.09,-1.04,0.08,-30.34,-63.18,-45.01,31.45
106157,-0.16,-1.06,0.04,-31.86,-71.27,-40.12,31.35
106167,-0.14,-1.10,0.04,-32.08,-73.76,-26.99,31.45
106177,-0.08,-1.13,0.08,-29.83,-68.79,-13.68,31.49
106187,-0.03,-1.12,0.11,-23.98,-60.26,-5.18,31.54
106197,-0.01,-1.13,0.11,-15.77,-56.66,0.60,31.49
106207,0.01,-1.16,0.05,-6.14,-56.00,6.05,31.49
106217,-0.01,-1.14,0.05,0.11,-61.69,7.22,31.59
106227,-0.01,-1.12,0.03,3.04,-64.70,8.92,31.49
106237,0.00,-1.09,0.01,2.55,-65.39,11.40,31.49
106247,0.03,-1.05,0.00,2.02,-61.76,12.52,31.49
106257,0.02,-1.01,-0.03,1.47,-59.80,12.79,31.49
106267,0.01,-1.03,-0.05,2.76,-61.48,16.00,31.49
106277,0.04,-1.04,-0.07,4.32,-62.15,19.98,31.45
106287,0.11,-1.03,-0.07,6.02,-59.05,20.20,31.54
106297,0.14,-0.98,-0.07,4.23,-55.19,15.88,31.54
106307,0.13,-0.99,-0.08,1.97,-56.89,10.12,31.45
106317,0.12,-1.00,-0.13,-0.64,-58.81,5.37,31.54
106327,0.14,-1.00,-0.13,-3.22,-59.86,-0.20,31.54
106337,0.15,-0.98,-0.14,-6.93,-58.02,-6.87,31.45
106347,0.16,-0.98,-0.13,-10.82,-56.49,-13.28,31.49
106357,0.16,-0.97,-0.13,-14.47,-56.44,-19.24,31.49
106367,0.15,-0.96,-0.11,-17.16,-57.85,-24.60,31.49
106377,0.11,-0.98,-0.12,-19.13,-59.11,-25.91,31.49
106387,0.06,-1.00,-0.10,-19.98,-60.32,-22.81,31.49
106397,0.03,-1.00,-0.07,-18.40,-59.85,-15.45,31.49
106407,0.03,-0.99,-0.04,-13.05,-58.12,-6.27,31.59
106417,0.03,-0.95,-0.04,-5.97,-54.89,2.81,31.49
106427,0.02,-0.91,-0.05,0.75,-53.53,11.94,31.40
106437,0.00,-0.89,-0.07,7.36,-55.42,20.90,31.54
106447,-0.01,-0.89,-0.08,12.29,-59.19,31.92,31.54
106457,0.01,-0.88,-0.09,15.31,-62.89,42.64,31.45
106467,0.04,-0.85,-0.09,16.73,-62.41,50.81,31.54
106477,0.06,-0.82,-0.06,17.39,-58.29,52.85,31.45
106487,0.05,-0.81,-0.08,17.08,-53.37,51.48,31.54
106497,0.02,-0.86,-0.11,14.41,-50.81,47.83,31.45
106507,0.04,-0.90,-0.15,9.59,-50.46,43.54,31.45
106517,0.09,-0.93,-0.19,1.16,-52.34,38.60,31.49
106527,0.13,-0.95,-0.20,-10.81,-53.45,31.28,31.49
106537,0.17,-0.95,-0.19,-23.71,-52.69,20.21,31.49
106547,0.16,-1.00,-0.17,-36.64,-55.76,6.99,31.49
106557,0.09,-1.09,-0.11,-43.54,-61.16,-1.47,31.49
106567,0.03,-1.18,-0.05,-43.66,-65.48,-2.78,31.49
106577,-0.02,-1.22,0.01,-37.11,-65.07,1.79,31.49
106587,-0.02,-1.23,0.05,-26.73,-60.60,9.16,31.54
106597,-0.01,-1.22,0.03,-13.34,-53.08,16.98,31.45
106607,-0.02,-1.20,0.03,-3.02,-48.46,21.16,31.54
106617,-0.02,-1.18,-0.01,3.42,-49.22,22.14,31.35
106627,-0.04,-1.13,-0.06,5.47,-52.43,21.48,31.54
106637,-0.04,-1.09,-0.13,3.16,-52.99,23.19,31.45
106647,-0.04,-1.10,-0.14,-0.76,-53.01,26.27,31.49
106657,-0.01,-1.11,-0.12,-4.63,-47.89,29.44,31.45
106667,-0.01,-1.13,-0.09,-7.83,-43.13,28.00,31.49
106677,-0.02,-1.14,-0.05,-9.15,-43.98,23.08,31.40
106687,-0.00,-1.14,-0.06,-10.35,-47.53,14.56,31.49
106697,-0.01,-1.13,-0.07,-11.25,-51.76,5.04,31.49
106707,-0.02,-1.12,-0.07,-12.37,-54.85,-0.67,31.49
106717,-0.03,-1.11,-0.09,-13.97,-54.75,-1.68,31.49
106727,-0.05,-1.12,-0.09,-14.12,-52.75,0.52,31.49
106737,-0.08,-1.12,-0.07,-12.67,-49.69,4.81,31.49
106747,-0.08,-1.13,-0.06,-10.46,-47.36,8.43,31.45
106757,-0.08,-1.13,-0.04,-7.71,-46.53,10.26,31.45
106767,-0.06,-1.11,-0.06,-3.45,-47.40,12.05,31.45
106777,-0.03,-1.08,-0.10,-1.08,-46.06,12.11,31.54
106787,0.01,-1.06,-0.12,-1.39,-43.27,9.36,31.45
106797,0.02,-1.02,-0.12,-5.33,-40.34,2.78,31.54
106807,0.01,-0.96,-0.11,-11.18,-41.98,-6.00,31.45
106817,-0.02,-0.94,-0.10,-16.70,-47.97,-13.89,31.49
106827,-0.07,-0.96,-0.13,-20.69,-51.86,-15.40,31.49
106837,-0.12,-0.97,-0.09,-22.87,-52.41,-12.40,31.40
106847,-0.14,-0.99,-0.06,-22.11,-51.11,-5.80,31.49
106857,-0.14,-1.00,-0.06,-20.06,-48.44,2.49,31.49
106867,-0.10,-0.99,-0.06,-16.76,-45.39,11.11,31.40
106877,-0.05,-0.96,-0.11,-12.90,-42.98,16.76,31.49
106887,-0.03,-0.97,-0.12,-11.45,-40.06,19.08,31.45
106897,-0.02,-0.95,-0.11,-13.45,-41.36,18.64,31.45
106907,-0.03,-0.93,-0.10,-16.60,-46.76,16.38,31.45
106917,-0.05,-0.93,-0.07,-18.37,-51.74,17.47,31.45
106927,-0.05,-0.92,-0.07,-14.73,-53.91,23.83,31.45
106937,-0.00,-0.90,-0.08,-7.71,-51.73,34.00,31.45
106947,0.06,-0.87,-0.12,2.15,-45.34,47.36,31.40
106957,0.11,-0.89,-0.16,13.89,-36.15,57.02,31.45
106967,0.16,-0.87,-0.24,19.73,-30.11,58.31,31.49
106977,0.18,-0.85,-0.27,15.15,-27.92,50.34,31.49
106987,0.17,-0.84,-0.26,3.98,-29.11,34.46,31.49
106997,0.17,-0.85,-0.30,-11.44,-31.21,18.92,31.40
107007,0.14,-0.88,-0.30,-25.59,-32.96,6.43,31.49
107017,0.11,-0.94,-0.25,-37.05,-29.54,-2.41,31.49
107027,0.05,-1.00,-0.21,-43.69,-29.66,-7.54,31.45
107037,-0.01,-1.08,-0.15,-46.21,-26.73,-6.63,31.35
107047,-0.08,-1.15,-0.06,-43.13,-26.60,-2.87,31.54
107057,-0.14,-1.21,0.03,-34.44,-26.87,3.07,31.45
107067,-0.19,-1.22,0.07,-22.06,-26.95,10.23,31.54
107077,-0.20,-1.19,0.08,-9.10,-25.63,16.18,31.40
107087,-0.21,-1.15,0.02,3.37,-22.96,22.37,31.45
107097,-0.21,-1.10,-0.03,10.47,-21.15,28.50,31.35
107107,-0.20,-1.05,-0.07,10.96,-20.60,31.73,31.49
107117,-0.19,-1.00,-0.10,7.24,-21.71,30.41,31.49
107127,-0.22,-0.97,-0.09,-1.05,-22.93,27.71,31.49
107137,-0.17,-0.97,-0.12,-9.19,-24.15,24.02,31.40
107147,-0.17,-0.98,-0.12,-15.04,-27.07,18.67,31.49
107157,-0.16,-0.99,-0.14,-18.99,-26.18,16.11,31.49
107167,-0.16,-1.00,-0.12,-22.41,-23.89,13.79,31.40
107177,-0.14,-1.01,-0.09,-24.72,-22.08,9.36,31.45
107187,-0.16,-1.00,-0.07,-28.05,-22.50,2.93,31.54
107197,-0.18,-1.00,-0.06,-26.84,-25.07,-2.26,31.64
107207,-0.19,-0.98,-0.06,-26.72,-25.97,-4.70,31.54
107217,-0.19,-0.95,-0.06,-26.17,-26.31,-5.39,31.54
107227,-0.19,-0.91,-0.08,-25.40,-25.89,-5.28,31.54
107237,-0.21,-0.92,-0.12,-25.53,-21.60,-3.11,31.45
107247,-0.22,-0.94,-0.13,-27.65,-19.53,-0.70,31.49
107257,-0.22,-0.95,-0.13,-31.39,-20.14,0.23,31.49
107267,-0.23,-0.95,-0.09,-34.89,-23.73,-0.29,31.59
107277,-0.21,-0.98,-0.10,-36.52,-27.28,0.55,31.49
107287,-0.20,-1.01,-0.10,-34.15,-29.21,3.01,31.40
107297,-0.20,-1.04,-0.08,-29.74,-26.61,6.41,31.49
107307,-0.21,-1.07,-0.06,-24.82,-24.61,10.06,31.49
107317,0.15,-1.73,-0.05,-9.98,22.84,-36.40,31.54
107327,0.00,-1.93,0.18,-5.40,17.18,-10.02,31.45
107337,-0.24,-1.18,0.04,22.89,-39.95,-46.96,31.45
107347,-0.29,-1.04,-0.23,22.96,-37.45,-42.47,31.54
107357,-0.06,-0.93,-0.42,21.98,-15.80,-24.46,31.54
107367,-0.00,-0.86,-0.40,20.32,5.65,-12.09,31.54
107377,-0.10,-0.92,-0.30,11.44,11.56,-10.89,31.49
107387,0.01,-1.02,-0.25,8.85,7.18,-7.24,31.45
107397,0.04,-1.09,-0.24,0.73,15.60,-5.37,31.49
107407,-0.00,-1.04,-0.22,-0.43,3.08,-9.21,31.49
107417,-0.10,-1.02,-0.18,-5.82,-5.60,-15.51,31.40
107427,-0.09,-0.96,-0.19,-4.09,2.02,-12.41,31.49
107437,-0.13,-0.94,-0.15,-3.80,6.89,-6.90,31.49
107447,-0.17,-0.96,-0.06,-3.37,10.78,-3.33,31.49
107457,-0.14,-0.96,-0.06,-0.38,9.88,0.26,31.49
107467,-0.10,-0.95,-0.09,1.57,10.82,3.50,31.49
107477,-0.10,-0.94,-0.13,3.07,11.19,4.38,31.45
107487,-0.11,-0.97,-0.13,1.77,12.81,4.11,31.45
107497,-0.14,-1.00,-0.10,1.71,13.34,5.21,31.45
107507,-0.15,-1.01,-0.06,0.66,12.70,5.54,31.54
107517,-0.17,-1.00,-0.04,-1.15,9.33,4.50,31.45
107527,-0.18,-1.01,-0.06,0.43,7.07,6.23,31.45
107537,-0.17,-1.01,-0.06,1.40,7.07,8.43,31.54
107547,-0.15,-1.00,-0.05,1.57,6.20,8.81,31.40
107557,-0.14,-1.00,-0.07,0.56,5.80,8.18,31.49
107567,-0.16,-1.00,-0.09,-1.19,5.47,6.90,31.49
107577,-0.18,-0.98,-0.09,-1.56,5.04,4.03,31.49
107587,-0.18,-0.98,-0.11,-4.49,5.02,2.87,31.49
107597,-0.21,-1.01,-0.07,-6.49,5.94,4.38,31.40
107607,-0.19,-1.10,-0.04,-4.79,8.69,10.02,31.40
107617,-0.19,-1.06,-0.01,-1.51,4.89,8.29,31.49
107627,-0.17,-0.99,-0.11,-2.82,-3.37,5.05,31.49
107637,-0.16,-1.02,-0.10,-3.62,-4.38,3.97,31.45
107647,-0.17,-1.01,-0.07,-2.02,-5.47,4.37,31.54
107657,-0.15,-1.02,-0.09,-4.00,1.07,4.56,31.45
107667,-0.15,-1.00,-0.08,-4.18,1.88,4.27,31.45
107677,-0.16,-0.99,-0.06,-4.76,0.98,2.60,31.54
107687,-0.20,-0.99,-0.05,-4.82,-2.18,1.71,31.45
107697,-0.21,-1.00,-0.05,-4.40,-3.21,3.47,31.54
107707,-0.20,-1.00,-0.05,-3.47,-3.19,6.02,31.54
107717,-0.17,-1.00,-0.07,-2.49,-1.95,8.31,31.59
107727,-0.16,-1.01,-0.08,-2.76,-2.78,8.55,31.49
107737,-0.14,-1.01,-0.08,-2.66,-2.79,8.18,31.49
107747,-0.11,-1.01,-0.09,-1.18,-1.85,8.06,31.40
107757,-0.12,-1.02,-0.10,-1.08,0.41,10.87,31.49
107767,-0.13,-1.06,-0.04,5.22,9.86,14.47,31.49
107777,-0.11,-1.06,-0.05,10.40,9.18,15.98,31.59
107787,-0.12,-1.04,-0.05,9.88,9.95,12.49,31.64
107797,-0.12,-1.04,-0.02,13.16,6.44,6.82,31.45
107807,-0.11,-1.03,-0.07,15.40,5.83,3.91,31.54
107817,-0.13,-1.02,-0.10,17.59,4.72,3.60,31.54
107827,-0.12,-1.01,-0.13,17.42,8.66,5.36,31.54
107837,-0.12,-1.02,-0.12,16.18,13.18,7.24,31.45
107847,-0.10,-1.03,-0.11,13.57,16.66,7.62,31.49
107857,-0.10,-1.04,-0.10,11.08,18.35,5.59,31.49
107867,-0.09,-1.06,-0.08,10.56,18.82,2.75,31.49
107877,-0.09,-1.06,-0.05,11.42,16.95,-1.95,31.49
107887,-0.08,-1.03,-0.09,12.24,15.18,-6.69,31.40
107897,-0.08,-1.01,-0.12,12.46,14.66,-9.73,31.49
107907,-0.07,-0.99,-0.16,9.79,16.67,-10.82,31.49
107917,-0.06,-1.00,-0.17,5.98,19.22,-11.48,31.49
107927,-0.07,-1.00,-0.15,1.34,21.13,-12.09,31.54
107937,-0.07,-1.02,-0.12,-2.14,21.74,-13.15,31.54
107947,-0.08,-1.04,-0.09,-2.98,21.77,-14.44,31.54
107957,-0.07,-1.05,-0.07,-0.24,21.63,-15.48,31.54
107967,-0.08,-1.04,-0.05,3.02,23.05,-14.93,31.45
107977,-0.10,-1.04,-0.03,6.84,23.51,-13.53,31.49
107987,-0.13,-1.00,-0.05,11.34,24.60,-9.48,31.54
107997,-0.14,-0.98,-0.09,14.18,26.79,-3.44,31.49
108007,-0.15,-0.96,-0.11,15.31,29.42,3.44,31.49
108017,-0.14,-0.97,-0.12,13.80,30.56,9.91,31.40
108027,-0.12,-0.99,-0.12,11.25,31.30,15.37,31.49
108037,-0.08,-1.01,-0.11,9.71,32.02,18.46,31.49
108047,-0.06,-1.04,-0.08,9.28,33.74,18.49,31.49
108057,-0.01,-1.04,-0.05,9.54,34.69,14.40,31.49
108067,-0.02,-1.03,-0.06,10.76,32.63,8.31,31.54
108077,-0.04,-1.03,-0.08,11.76,30.64,4.27,31.54
108087,-0.04,-1.02,-0.11,11.83,30.75,2.53,31.54
108097,-0.05,-1.02,-0.11,11.56,32.69,2.17,31.45
108107,-0.05,-1.02,-0.12,10.67,36.93,2.87,31.49
108117,-0.05,-1.02,-0.11,9.63,40.31,2.35,31.45
108127,-0.06,-1.01,-0.09,8.32,41.04,0.12,31.54
108137,-0.08,-1.00,-0.09,8.06,40.14,-2.69,31.49
108147,-0.09,-1.00,-0.09,6.56,39.94,-5.34,31.49
108157,-0.12,-0.99,-0.07,4.99,39.11,-6.17,31.49
108167,-0.13,-1.00,-0.08,4.89,39.66,-3.79,31.49
108177,-0.15,-1.01,-0.07,6.40,42.44,0.08,31.49
108187,-0.14,-1.01,-0.06,9.50,45.76,3.94,31.40
108197,-0.13,-1.03,-0.05,12.55,47.71,7.01,31.49
108207,-0.13,-1.04,-0.05,14.37,47.92,8.12,31.45
108217,-0.13,-1.06,-0.05,15.91,48.67,8.70,31.54
108227,-0.13,-1.08,-0.04,16.44,48.43,8.41,31.54
108237,-0.12,-1.09,-0.01,17.89,49.85,7.82,31.64
108247,-0.12,-1.07,-0.02,20.67,53.86,6.58,31.45
108257,-0.13,-1.07,-0.00,23.62,54.69,4.35,31.45
108267,-0.13,-1.08,-0.01,26.21,52.46,1.18,31.45
108277,-0.12,-1.07,-0.05,27.25,50.34,-2.23,31.49
108287,-0.11,-1.05,-0.07,27.15,48.72,-3.65,31.49
108297,-0.11,-1.01,-0.10,26.38,50.20,-1.24,31.49
108307,-0.12,-1.01,-0.11,25.63,54.20,3.05,31.49
108317,-0.10,-1.00,-0.12,24.69,59.51,6.52,31.49
108327,-0.11,-1.01,-0.11,21.88,62.17,5.30,31.49
108337,-0.13,-0.99,-0.07,18.99,60.93,0.81,31.49
108347,-0.13,-0.99,-0.05,15.50,57.42,-6.84,31.49
108357,-0.13,-0.99,-0.06,13.54,53.68,-13.77,31.45
108367,-0.15,-0.97,-0.06,12.40,50.87,-16.35,31.54
108377,-0.15,-0.97,-0.08,11.88,50.98,-15.16,31.45
108387,-0.15,-0.97,-0.09,9.82,53.86,-12.08,31.54
108397,-0.14,-0.98,-0.09,7.71,55.97,-9.22,31.54
108407,-0.10,-0.99,-0.10,5.54,58.66,-7.18,31.49
108417,-0.03,-1.01,-0.13,3.62,63.18,-7.77,31.45
108427,0.02,-1.04,-0.15,-0.23,67.24,-13.04,31.54
108437,0.06,-1.05,-0.13,-4.49,70.34,-22.73,31.49
108447,0.07,-1.05,-0.14,-9.98,71.10,-35.68,31.49
108457,0.02,-1.06,-0.13,-18.67,68.34,-51.83,31.49
108467,-0.05,-1.07,-0.12,-26.93,63.53,-66.67,31.49
108477,-0.16,-1.09,-0.08,-34.06,55.88,-75.31,31.49
108487,-0.25,-1.10,-0.05,-35.30,50.29,-72.49,31.49
108497,-0.27,-1.10,-0.04,-30.85,52.84,-60.18,31.49
108507,-0.28,-1.09,-0.01,-21.44,59.33,-41.62,31.49
108517,-0.24,-1.08,-0.01,-9.37,66.67,-21.91,31.54
108527,-0.20,-1.10,0.00,3.28,70.73,-7.51,31.45
108537,-0.16,-1.10,-0.03,11.97,71.36,0.44,31.45
108547,-0.13,-1.09,-0.06,14.69,66.70,4.24,31.54
108557,-0.10,-1.09,-0.09,13.31,66.21,3.19,31.45
108567,-0.10,-1.07,-0.07,9.74,61.83,-1.01,31.54
108577,-0.08,-1.06,-0.08,7.62,61.11,-3.22,31.59
108587,-0.07,-1.05,-0.08,7.76,62.67,-4.40,31.49
108597,-0.06,-1.03,-0.08,9.50,65.74,-6.50,31.49
108607,-0.08,-1.00,-0.08,9.63,65.07,-9.66,31.49
108617,-0.09,-0.97,-0.10,7.65,61.65,-12.64,31.49
108627,-0.13,-0.97,-0.10,2.47,57.66,-14.75,31.49
108637,-0.16,-0.97,-0.10,-2.96,56.72,-13.98,31.49
108647,-0.19,-0.97,-0.11,-5.34,56.11,-10.31,31.49
108657,-0.18,-0.98,-0.09,-6.64,57.57,-5.21,31.45
108667,-0.18,-1.01,-0.05,-6.37,61.42,-2.92,31.45
108677,-0.17,-1.00,-0.01,-4.49,59.37,-1.50,31.45
108687,-0.15,-0.99,-0.01,-1.13,58.32,-0.79,31.45
108697,-0.14,-1.00,-0.00,2.06,57.40,-1.42,31.54
108707,-0.13,-1.01,-0.02,3.68,57.42,-0.67,31.49
108717,-0.11,-1.02,-0.02,3.59,58.02,-0.89,31.54
108727,-0.09,-1.03,-0.02,3.50,57.59,-1.97,31.54
108737,-0.08,-1.02,-0.03,4.08,56.79,-2.81,31.59
108747,-0.07,-1.01,-0.04,5.15,55.45,-2.73,31.49
108757,-0.07,-1.01,-0.06,7.91,55.91,-1.40,31.49
108767,-0.08,-1.02,-0.07,9.40,57.98,1.18,31.49
108777,-0.10,-1.02,-0.08,7.85,59.10,4.08,31.49
108787,-0.11,-1.02,-0.08,5.53,59.97,7.50,31.49
108797,-0.09,-1.04,-0.04,4.47,60.21,9.71,31.49
108807,-0.06,-1.06,-0.03,5.83,59.51,9.88,31.49
108817,-0.03,-1.07,-0.03,9.22,58.37,8.02,31.45
108827,0.03,-1.07,-0.04,12.99,58.26,6.03,31.54
108837,0.03,-1.07,-0.06,16.55,58.87,3.77,31.54
108847,0.02,-1.05,-0.06,18.49,59.56,2.06,31.45
108857,-0.01,-1.04,-0.10,19.82,59.86,2.70,31.54
108867,-0.01,-1.05,-0.10,19.92,62.82,5.08,31.45
108877,-0.01,-1.03,-0.10,20.24,65.36,6.53,31.59
108887,-0.03,-1.02,-0.08,19.76,66.76,6.49,31.59
108897,-0.03,-1.01,-0.09,19.74,67.33,6.32,31.49
108907,-0.03,-1.00,-0.11,19.39,65.80,5.77,31.49
108917,-0.04,-0.98,-0.11,18.15,65.04,6.32,31.59
108927,-0.04,-0.99,-0.12,16.47,65.48,7.73,31.59
108937,-0.04,-0.99,-0.10,13.50,66.53,8.92,31.49
108947,-0.02,-1.00,-0.10,11.15,66.81,9.59,31.49
108957,-0.02,-0.99,-0.09,10.78,68.26,10.18,31.49
108967,-0.01,-0.99,-0.09,12.56,71.95,11.36,31.45
108977,-0.02,-0.97,-0.10,15.40,74.14,13.76,31.45
108987,-0.01,-0.97,-0.08,17.60,75.36,15.05,31.54
108997,-0.04,-0.95,-0.08,18.35,75.51,15.71,31.54
109007,-0.05,-0.95,-0.08,17.62,76.47,16.89,31.59
109017,-0.07,-0.94,-0.04,16.02,76.85,18.75,31.54
109027,-0.09,-0.95,-0.01,16.05,76.35,22.05,31.54
109037,-0.09,-0.98,-0.01,17.86,77.76,23.56,31.49
109047,-0.09,-1.00,0.02,20.87,80.53,22.93,31.59
109057,-0.10,-0.99,0.03,25.19,80.08,21.22,31.49
109067,-0.07,-0.97,-0.02,28.44,80.60,19.05,31.49
109077,-0.05,-0.93,-0.06,27.59,82.00,17.69,31.59
109087,-0.06,-0.93,-0.08,24.89,84.24,15.79,31.49
109097,-0.06,-0.94,-0.09,20.49,85.11,13.73,31.49
109107,-0.07,-0.96,-0.10,15.05,87.63,11.16,31.59
109117,-0.09,-0.98,-0.07,11.25,87.89,8.15,31.54
109127,-0.10,-1.01,-0.03,7.91,86.44,4.64,31.54
109137,-0.12,-1.00,-0.01,6.17,85.18,1.45,31.45
109147,-0.12,-1.01,-0.00,8.23,83.71,0.53,31.54
109157,-0.11,-1.00,-0.02,11.73,84.72,1.13,31.54
109167,-0.12,-0.99,-0.01,15.33,87.51,2.35,31.54
109177,-0.14,-1.00,0.03,17.50,88.38,2.18,31.49
109187,-0.14,-0.99,0.02,19.98,88.70,1.59,31.49
109197,-0.14,-0.98,0.01,21.02,89.10,-0.58,31.49
109207,-0.16,-0.97,0.02,21.21,87.68,-2.02,31.59
109217,-0.18,-0.94,-0.01,20.32,87.48,-2.46,31.59
109227,-0.19,-0.93,-0.01,17.88,86.03,-2.26,31.49
109237,-0.20,-0.92,-0.03,15.21,84.90,-3.21,31.40
109247,-0.21,-0.93,-0.03,11.30,83.25,-4.87,31.59
109257,-0.21,-0.94,-0.03,7.13,80.12,-7.85,31.54
109267,-0.22,-0.93,-0.00,2.70,77.42,-10.44,31.54
109277,-0.21,-0.93,-0.01,-0.29,75.13,-12.15,31.54
109287,-0.21,-0.92,0.00,-3.62,74.21,-13.50,31.54
109297,-0.21,-0.93,0.01,-5.50,72.44,-13.71,31.54
109307,-0.22,-0.97,-0.00,-6.85,72.35,-14.11,31.49
109317,-0.23,-0.99,0.04,-8.82,70.82,-14.52,31.45
109327,-0.22,-1.01,0.05,-9.62,68.14,-16.15,31.54
109337,-0.22,-1.03,0.08,-9.39,66.70,-18.79,31.59
109347,-0.21,-1.01,0.09,-8.72,64.95,-20.34,31.59
109357,-0.22,-1.00,0.08,-6.06,62.32,-20.40,31.49
109367,-0.23,-0.99,0.06,-5.60,60.15,-18.89,31.59
109377,-0.26,-0.98,0.05,-5.59,59.04,-15.56,31.49
109387,-0.29,-0.99,0.06,-7.89,55.80,-11.50,31.49
109397,-0.28,-1.00,0.06,-8.72,54.50,-6.34,31.59
109407,-0.27,-1.01,0.07,-9.15,54.12,-1.73,31.49
109417,-0.25,-1.03,0.09,-8.00,53.95,1.92,31.54
109427,-0.22,-1.05,0.10,-4.75,53.27,3.21,31.54
109437,-0.20,-1.04,0.09,-2.66,50.79,3.05,31.54
109447,-0.19,-1.05,0.07,-1.37,48.56,3.11,31.54
109457,-0.16,-1.06,0.06,-1.25,47.44,2.72,31.54
109467,-0.14,-1.05,0.03,-1.54,48.31,2.43,31.45
109477,-0.15,-1.05,0.02,-3.73,47.74,2.78,31.59
109487,-0.17,-1.05,0.04,-3.85,47.31,4.24,31.54
109497,-0.18,-1.06,0.03,-2.87,46.58,7.98,31.59
109507,-0.18,-1.07,0.03,-1.44,48.69,12.47,31.49
109517,-0.18,-1.08,0.05,-0.98,51.79,16.37,31.59
109527,-0.18,-1.08,0.07,-1.15,52.32,17.11,31.49
109537,-0.17,-1.09,0.09,-0.17,50.11,15.30,31.59
109547,-0.19,-1.08,0.10,0.20,46.93,11.07,31.59
109557,-0.22,-1.07,0.08,2.08,42.58,8.96,31.59
109567,-0.25,-1.05,0.07,2.84,39.27,10.75,31.40
109577,-0.30,-1.03,0.07,4.08,37.83,17.95,31.45
109587,-0.36,-1.03,0.08,5.92,36.11,29.60,31.54
109597,-0.41,-1.02,0.12,8.32,36.41,45.51,31.54
109607,-0.45,-1.03,0.13,14.56,37.11,64.84,31.54
109617,-0.43,-1.05,0.15,21.95,38.93,84.87,31.45
109627,-0.42,-1.03,0.16,29.89,42.29,101.30,31.45
109637,-0.36,-1.02,0.14,38.37,45.94,112.84,31.45
109647,-0.30,-1.04,0.14,42.32,51.30,112.56,31.49
109657,-0.25,-1.04,0.12,39.50,51.22,97.62,31.59
109667,-0.22,-1.00,0.11,29.40,40.35,72.05,31.49
109677,-0.19,-0.99,0.11,18.81,25.11,39.40,31.59
109687,-0.15,-0.93,0.01,9.25,12.31,12.14,31.59
109697,-0.15,-0.91,-0.05,-1.33,9.60,-7.62,31.59
109707,-0.19,-0.93,-0.07,-9.13,10.37,-18.92,31.49
109717,-0.23,-0.97,-0.04,-17.60,12.92,-28.03,31.59
109727,-0.25,-0.99,0.02,-25.73,13.04,-34.05,31.49
109737,-0.27,-1.00,0.05,-26.96,10.50,-37.37,31.49
109747,-0.28,-1.01,0.09,-26.27,11.44,-38.53,31.45
109757,-0.29,-1.02,0.11,-22.55,11.76,-37.08,31.54
109767,-0.29,-1.00,0.09,-17.10,14.99,-33.16,31.54
109777,-0.29,-1.02,0.09,-12.00,16.37,-29.21,31.45
109787,-0.32,-1.02,0.10,-9.45,15.01,-25.89,31.45
109797,-0.32,-1.00,0.10,-7.50,14.26,-21.47,31.45
109807,-0.31,-0.99,0.08,-5.34,15.11,-15.16,31.54
109817,-0.30,-0.98,0.08,-2.60,17.37,-8.20,31.59
109827,-0.28,-0.98,0.07,-0.23,18.92,-3.37,31.49
109837,-0.27,-0.98,0.06,1.66,20.21,0.06,31.49
109847,-0.26,-0.99,0.03,2.27,20.99,1.91,31.49
109857,-0.25,-1.00,0.03,0.53,19.74,2.20,31.49
109867,-0.25,-1.00,0.05,-2.24,18.29,0.08,31.49
109877,-0.23,-1.01,0.04,-4.89,16.96,-2.15,31.49
109887,-0.23,-1.01,0.05,-6.14,15.63,-3.98,31.49
109897,-0.25,-1.03,0.05,-7.18,14.05,-6.44,31.40
109907,-0.27,-1.01,0.07,-8.32,13.21,-8.23,31.54
109917,-0.29,-1.00,0.07,-7.94,11.85,-8.69,31.54
109927,-0.30,-1.01,0.07,-8.47,11.34,-8.44,31.35
109937,-0.32,-1.00,0.09,-9.22,10.20,-8.61,31.45
109947,-0.33,-1.00,0.09,-9.42,7.85,-7.53,31.54
109957,-0.32,-0.98,0.05,-8.52,6.84,-5.11,31.54
109967,-0.30,-0.99,0.03,-8.85,7.44,-2.72,31.45
109977,-0.29,-0.98,0.03,-9.86,6.40,-1.37,31.54
109987,-0.27,-0.96,0.04,-12.14,4.79,-0.87,31.49
109997,-0.27,-0.96,0.03,-12.70,3.97,1.74,31.49
110007,-0.25,-0.97,0.02,-12.78,4.03,4.44,31.49
110017,-0.24,-1.01,0.04,-12.11,5.10,6.87,31.49
110027,-0.24,-1.03,0.08,-10.64,5.50,7.44,31.59
110037,-0.23,-1.07,0.08,-7.79,4.05,6.55,31.59
110047,-0.20,-1.06,0.09,-5.08,4.43,5.37,31.40
110057,-0.19,-1.04,0.09,-1.11,4.75,4.06,31.49
110067,-0.17,-1.02,0.04,2.99,6.96,4.37,31.49
