Millis,Acce_X,Acce_Y,Acce_Z,Gyro_X,Gyro_Y,Gyro_Z,Temp
58707,-0.00,-1.07,0.14,-0.78,-2.31,5.83,31.12
58717,-0.01,-1.06,0.13,0.21,-3.33,4.87,31.17
58727,0.02,-1.05,0.14,-0.03,-2.89,4.05,31.17
58737,0.01,-1.05,0.13,-0.55,-2.99,3.08,31.21
58747,0.01,-1.04,0.12,-0.95,-2.46,3.08,31.12
58757,0.02,-1.05,0.10,-0.82,-0.14,4.00,31.12
58767,0.01,-1.07,0.11,-0.64,0.93,5.27,31.21
58777,0.00,-1.08,0.12,-1.22,-0.23,6.31,31.21
58787,0.01,-1.08,0.12,-2.31,0.63,7.50,31.21
58797,0.01,-1.07,0.12,-3.01,0.34,8.14,31.12
58807,0.01,-1.07,0.11,-2.73,0.47,9.40,31.21
58817,0.02,-1.07,0.11,-1.36,2.43,10.11,31.12
58827,0.01,-1.08,0.11,2.08,2.75,10.69,31.17
58837,0.02,-1.09,0.12,5.10,3.50,10.96,31.17
58847,0.02,-1.09,0.12,7.56,4.46,12.14,31.26
58857,0.03,-1.07,0.10,7.48,7.91,14.11,31.26
58867,0.03,-1.04,0.08,3.95,10.96,13.08,31.17
58877,0.06,-1.04,0.08,-0.98,16.29,9.25,31.21
58887,0.08,-1.04,0.09,-5.80,13.15,3.04,31.17
58897,0.06,-1.06,0.10,-7.76,9.62,-3.83,31.17
58907,0.07,-1.07,0.12,-7.11,6.14,-9.54,31.21
58917,0.07,-1.08,0.12,-7.92,2.79,-14.12,31.21
58927,0.08,-1.07,0.11,-8.55,4.50,-16.72,31.21
58937,0.07,-1.06,0.10,-8.27,9.40,-16.69,31.12
58947,0.07,-1.06,0.09,-5.76,12.93,-14.87,31.12
58957,0.05,-1.07,0.10,-2.37,16.20,-12.23,31.12
58967,0.06,-1.09,0.10,1.42,19.36,-9.24,31.12
58977,0.06,-1.08,0.11,2.76,23.44,-7.19,31.21
58987,0.08,-1.09,0.12,3.40,28.26,-7.33,31.17
58997,0.09,-1.09,0.13,3.89,30.64,-9.31,31.17
59007,0.10,-1.08,0.12,5.59,33.21,-11.80,31.17
59017,0.11,-1.08,0.11,6.92,34.92,-13.65,31.17
59027,0.10,-1.08,0.10,7.22,36.05,-14.81,31.07
59037,0.11,-1.07,0.10,6.08,39.36,-15.18,31.17
59047,0.11,-1.06,0.08,6.82,42.79,-14.64,31.12
59057,0.10,-1.06,0.09,7.08,45.68,-14.78,31.17
59067,0.11,-1.08,0.10,7.91,49.22,-15.71,31.12
59077,0.11,-1.10,0.11,9.22,51.40,-16.96,31.12
59087,0.09,-1.10,0.14,9.42,51.57,-18.15,31.12
59097,0.08,-1.09,0.16,10.20,51.94,-18.76,31.21
59107,0.06,-1.09,0.17,11.56,52.75,-19.08,31.12
59117,0.05,-1.09,0.18,14.24,53.50,-18.09,31.21
59127,0.04,-1.07,0.20,17.33,55.10,-16.72,31.12
59137,0.04,-1.06,0.19,19.66,57.18,-15.71,31.21
59147,0.03,-1.06,0.19,20.46,55.91,-14.89,31.12
59157,0.00,-1.05,0.19,19.22,52.31,-14.21,31.26
59167,-0.03,-1.04,0.20,17.16,46.37,-13.33,31.17
59177,-0.04,-1.03,0.20,14.05,42.90,-11.45,31.17
59187,-0.05,-1.06,0.22,11.74,38.23,-11.11,31.17
59197,-0.06,-1.08,0.26,9.37,34.32,-12.93,31.17
59207,-0.07,-1.09,0.31,8.21,28.73,-16.96,31.17
59217,-0.06,-1.08,0.32,7.98,26.02,-22.14,31.21
59227,-0.02,-1.06,0.34,9.83,26.43,-27.07,31.17
59237,-0.00,-1.02,0.33,11.65,27.53,-31.27,31.21
59247,-0.01,-0.95,0.32,12.78,28.32,-34.73,31.12
59257,0.01,-0.90,0.23,15.71,33.71,-34.82,31.12
59267,0.00,-0.86,0.18,13.92,36.32,-29.42,31.21
59277,-0.01,-0.83,0.14,8.93,35.92,-21.82,31.21
59287,-0.01,-0.82,0.11,4.37,37.19,-13.15,31.21
59297,-0.01,-0.86,0.12,2.20,39.07,-4.95,31.21
59307,-0.02,-0.92,0.11,1.50,40.61,2.81,31.21
59317,-0.00,-0.98,0.13,0.95,40.37,8.35,31.26
59327,0.01,-1.03,0.18,1.57,40.29,10.38,31.17
59337,0.00,-1.05,0.21,6.34,42.03,8.61,31.17
59347,0.20,-1.04,0.13,-0.93,39.51,6.72,31.17
59357,-0.04,-1.13,0.37,8.69,36.15,-4.70,31.17
59367,0.09,-1.06,0.17,6.02,26.81,-10.95,31.26
59377,0.14,-1.03,0.21,4.95,43.80,-16.03,31.26
59387,0.07,-1.05,0.24,8.93,44.49,-20.15,31.21
59397,0.03,-1.03,0.24,10.26,50.76,-21.92,31.26
59407,-0.01,-1.00,0.24,10.92,48.05,-23.10,31.21
59417,-0.04,-0.97,0.21,11.27,44.12,-22.63,31.21
59427,-0.06,-0.96,0.21,10.38,43.91,-21.24,31.21
59437,-0.06,-0.93,0.21,8.92,42.55,-17.88,31.21
59447,-0.05,-0.92,0.22,8.18,43.85,-14.38,31.21
59457,-0.03,-0.93,0.20,6.98,44.15,-12.34,31.12
59467,-0.00,-0.93,0.21,5.56,43.34,-10.61,31.21
59477,0.00,-0.95,0.21,4.73,42.64,-8.70,31.12
59487,0.01,-0.96,0.21,3.30,43.05,-6.53,31.21
59497,0.00,-0.99,0.21,0.70,41.16,-6.17,31.17
59507,0.00,-1.01,0.23,-2.20,39.27,-6.32,31.17
59517,0.02,-1.01,0.24,-4.96,38.37,-7.30,31.17
59527,0.03,-1.00,0.24,-6.34,39.07,-8.46,31.07
59537,0.04,-1.00,0.26,-6.96,39.04,-9.80,31.26
59547,0.03,-1.00,0.28,-5.86,37.69,-9.94,31.17
59557,0.03,-0.99,0.29,-4.05,38.49,-9.97,31.12
59567,0.02,-0.99,0.29,-1.54,39.31,-9.63,31.17
59577,0.01,-1.01,0.29,1.25,41.04,-9.18,31.21
59587,-0.00,-1.00,0.31,3.44,41.66,-7.80,31.21
59597,0.01,-0.98,0.29,5.33,41.92,-5.65,31.12
59607,0.01,-0.96,0.27,6.87,42.58,-3.92,31.12
59617,0.03,-0.95,0.26,5.08,43.30,-3.74,31.12
59627,0.03,-0.94,0.25,1.56,41.92,-4.00,31.21
59637,0.02,-0.94,0.25,-2.53,40.46,-4.69,31.21
59647,0.01,-0.96,0.27,-5.56,39.60,-5.95,31.21
59657,0.01,-0.97,0.28,-6.87,39.39,-7.39,31.17
59667,0.02,-0.99,0.31,-5.54,40.05,-9.28,31.17
59677,0.02,-1.01,0.31,-3.57,39.59,-11.50,31.17
59687,0.02,-1.02,0.32,-2.58,37.91,-13.44,31.07
59697,0.03,-1.01,0.30,-1.79,35.92,-14.64,31.17
59707,0.02,-1.02,0.28,-1.91,35.24,-14.56,31.17
59717,0.02,-0.99,0.25,-3.18,35.34,-14.00,31.17
59727,0.03,-0.97,0.23,-4.55,35.34,-12.03,31.21
59737,0.03,-0.96,0.22,-6.24,36.31,-10.14,31.21
59747,0.03,-0.94,0.20,-8.69,36.20,-8.09,31.21
59757,0.03,-0.93,0.18,-12.26,37.97,-5.71,31.31
59767,0.04,-0.94,0.16,-15.74,39.21,-4.18,31.21
59777,0.03,-0.95,0.17,-18.79,39.11,-3.83,31.21
59787,0.04,-0.98,0.20,-20.63,37.63,-4.44,31.21
59797,0.05,-0.99,0.21,-20.72,36.17,-5.28,31.21
59807,0.05,-1.00,0.21,-20.66,37.89,-6.00,31.21
59817,0.05,-0.98,0.22,-20.95,39.94,-5.47,31.21
59827,0.04,-0.98,0.23,-20.93,42.56,-4.63,31.17
59837,0.01,-0.98,0.23,-20.58,43.65,-3.50,31.17
59847,0.01,-0.97,0.23,-20.52,43.39,-1.16,31.26
59857,0.02,-0.95,0.21,-21.25,44.26,1.11,31.17
59867,0.03,-0.96,0.21,-22.40,46.44,2.24,31.17
59877,0.06,-0.98,0.18,-23.33,45.59,2.31,31.26
59887,0.01,-0.96,0.18,-26.56,39.73,3.92,31.17
59897,0.10,-1.00,0.21,-26.23,54.61,5.05,31.12
59907,0.03,-1.00,0.26,-21.65,50.87,1.07,31.21
59917,0.05,-0.98,0.17,-23.05,46.18,0.06,31.12
59927,0.08,-1.00,0.18,-22.95,47.94,-1.10,31.21
59937,0.09,-1.02,0.19,-21.47,53.31,-2.40,31.21
59947,0.08,-1.02,0.20,-21.10,57.40,-4.02,31.21
59957,0.08,-1.02,0.20,-19.50,58.82,-5.63,31.12
59967,0.06,-1.00,0.17,-18.82,59.25,-7.94,31.12
59977,0.02,-0.99,0.18,-18.73,57.56,-10.32,31.17
59987,0.02,-1.01,0.16,-20.72,61.65,-11.25,31.26
59997,-0.00,-1.03,0.21,-20.95,61.28,-13.73,31.17
60007,-0.00,-1.04,0.20,-21.57,57.85,-17.16,31.26
60017,-0.01,-1.07,0.23,-21.83,53.08,-21.65,31.17
60027,0.00,-1.07,0.23,-20.40,53.22,-25.66,31.12
60037,0.01,-1.07,0.23,-18.21,55.19,-28.66,31.17
60047,0.02,-1.04,0.19,-17.07,58.35,-31.85,31.26
60057,0.05,-1.01,0.14,-16.09,58.49,-34.12,31.12
60067,0.01,-0.98,0.11,-17.82,56.05,-35.24,31.21
60077,0.01,-0.99,0.11,-20.18,58.00,-34.24,31.21
60087,-0.02,-0.98,0.13,-23.73,53.16,-33.82,31.12
60097,-0.03,-0.99,0.13,-26.82,55.40,-29.80,31.21
60107,-0.05,-1.01,0.18,-27.98,58.41,-26.43,31.12
60117,-0.08,-1.02,0.19,-28.35,56.96,-22.92,31.21
60127,-0.08,-1.03,0.19,-27.82,54.92,-17.48,31.12
60137,-0.08,-1.03,0.21,-26.84,52.09,-13.63,31.26
60147,-0.07,-1.03,0.21,-22.81,52.61,-10.02,31.26
60157,-0.06,-1.03,0.20,-19.04,51.47,-7.76,31.17
60167,-0.04,-1.03,0.18,-16.55,51.59,-5.44,31.26
60177,-0.04,-1.03,0.18,-14.98,49.92,-4.56,31.07
60187,-0.03,-1.04,0.16,-13.33,48.46,-4.53,31.17
60197,-0.03,-1.02,0.16,-12.53,48.02,-4.29,31.12
60207,-0.04,-1.03,0.14,-11.60,46.24,-4.03,31.17
60217,-0.04,-1.03,0.14,-11.65,44.79,-4.09,31.21
60227,-0.05,-1.02,0.14,-12.15,42.52,-3.13,31.21
60237,-0.05,-1.02,0.13,-13.02,41.48,-1.60,31.21
60247,-0.03,-1.03,0.12,-14.61,39.60,-0.44,31.21
60257,-0.02,-1.01,0.12,-16.99,38.53,0.00,31.12
60267,-0.02,-0.99,0.11,-19.08,37.98,0.32,31.21
60277,-0.00,-0.97,0.08,-20.96,37.54,0.96,31.21
60287,0.02,-0.96,0.06,-23.07,40.41,0.76,31.21
60297,0.04,-0.95,0.06,-25.74,43.36,0.63,31.07
60307,0.06,-0.95,0.05,-28.35,41.95,-1.33,31.17
60317,0.06,-0.95,0.05,-33.05,39.74,-4.17,31.26
60327,0.06,-0.96,0.07,-36.56,40.24,-6.81,31.17
60337,0.05,-0.96,0.09,-37.24,41.04,-8.50,31.17
60347,0.03,-0.97,0.10,-35.44,40.14,-8.76,31.17
60357,0.02,-0.98,0.08,-33.65,40.23,-7.21,31.17
60367,0.01,-0.97,0.09,-31.88,42.09,-3.73,31.21
60377,0.01,-0.97,0.07,-30.52,45.66,-0.21,31.21
60387,-0.00,-0.94,0.04,-29.01,46.15,4.60,31.21
60397,0.00,-0.93,0.00,-29.77,46.82,7.98,31.12
60407,0.02,-0.92,-0.03,-33.02,45.44,9.74,31.12
60417,0.03,-0.91,-0.03,-37.97,45.07,10.00,31.12
60427,0.05,-0.93,-0.02,-41.30,44.96,9.48,31.12
60437,0.05,-0.94,0.00,-42.76,44.95,9.34,31.21
60447,0.06,-0.95,0.00,-42.14,46.27,8.72,31.21
60457,0.06,-0.97,0.01,-40.84,47.02,7.98,31.17
60467,0.05,-0.99,0.02,-39.15,47.25,7.44,31.17
60477,0.05,-1.00,0.01,-38.47,48.38,7.25,31.26
60487,0.06,-1.00,-0.00,-37.57,48.29,7.22,31.17
60497,0.05,-1.01,-0.01,-35.95,49.27,7.80,31.17
60507,0.06,-1.01,-0.02,-34.15,50.05,10.00,31.17
60517,0.06,-1.00,-0.05,-33.07,51.53,11.57,31.17
60527,0.07,-0.99,-0.06,-32.08,53.01,12.21,31.26
60537,0.07,-1.00,-0.07,-33.48,53.91,11.40,31.21
60547,0.08,-1.01,-0.09,-34.43,54.63,10.72,31.21
60557,0.07,-1.01,-0.09,-35.13,55.69,10.32,31.21
60567,0.08,-1.04,-0.08,-35.88,56.85,9.02,31.12
60577,0.10,-1.07,-0.06,-36.55,58.24,7.13,31.21
60587,0.10,-1.08,-0.05,-34.32,59.05,3.48,31.21
60597,0.10,-1.09,-0.04,-32.50,59.85,-0.32,31.21
60607,0.10,-1.10,-0.06,-31.53,58.50,-4.95,31.12
60617,0.08,-1.07,-0.08,-30.14,59.44,-9.08,31.17
60627,0.05,-1.06,-0.12,-30.17,60.26,-10.84,31.17
60637,0.01,-1.05,-0.11,-30.96,59.30,-10.58,31.17
60647,-0.00,-1.06,-0.11,-32.12,58.56,-8.96,31.17
60657,0.00,-1.08,-0.11,-30.90,58.79,-7.77,31.17
60667,0.02,-1.08,-0.09,-28.41,60.12,-7.30,31.21
60677,0.01,-1.08,-0.09,-25.59,58.95,-7.83,31.26
60687,0.00,-1.06,-0.10,-24.34,58.03,-7.89,31.26
60697,-0.01,-1.06,-0.11,-23.77,54.79,-6.29,31.12
60707,-0.01,-1.05,-0.13,-24.17,53.08,-3.95,31.12
60717,-0.02,-1.07,-0.11,-23.45,53.68,-1.40,31.21
60727,-0.01,-1.08,-0.10,-22.21,52.14,-0.09,31.21
60737,-0.00,-1.10,-0.09,-19.95,51.48,0.63,31.31
60747,0.01,-1.11,-0.08,-17.71,51.47,0.96,31.21
60757,0.04,-1.11,-0.09,-14.75,52.27,-0.75,31.21
60767,0.05,-1.12,-0.08,-12.26,51.83,-4.35,31.21
60777,0.04,-1.11,-0.09,-11.74,50.14,-8.72,31.17
60787,0.03,-1.10,-0.11,-12.08,48.06,-13.53,31.17
60797,0.03,-1.12,-0.12,-12.08,45.40,-17.50,31.26
60807,0.03,-1.11,-0.14,-12.52,43.39,-20.46,31.17
60817,0.03,-1.10,-0.15,-13.18,41.63,-22.73,31.17
60827,0.03,-1.10,-0.14,-13.68,41.18,-23.92,31.17
60837,0.04,-1.10,-0.11,-11.92,41.71,-25.82,31.21
60847,0.03,-1.11,-0.09,-6.96,39.50,-27.71,31.17
60857,0.02,-1.10,-0.07,-1.34,38.87,-29.82,31.12
60867,0.01,-1.10,-0.08,4.82,36.46,-31.07,31.12
60877,-0.01,-1.09,-0.10,12.95,36.02,-32.35,31.21
60887,-0.03,-1.09,-0.09,21.60,35.18,-33.16,31.12
60897,-0.02,-1.09,-0.09,31.68,32.32,-34.37,31.21
60907,-0.02,-1.10,-0.05,46.60,27.44,-34.75,31.21
60917,0.02,-1.08,-0.07,54.38,27.21,-34.82,31.12
60927,-0.01,-1.04,-0.12,54.72,25.25,-31.80,31.21
60937,0.02,-0.99,-0.18,49.74,24.06,-29.25,31.17
60947,0.06,-0.96,-0.20,38.95,30.64,-22.87,31.17
60957,0.08,-0.97,-0.18,26.15,31.60,-24.35,31.26
60967,0.10,-0.96,-0.19,15.74,27.30,-26.84,31.17
60977,0.11,-0.97,-0.16,6.06,22.32,-27.68,31.26
60987,0.16,-1.00,-0.13,-3.30,19.18,-31.37,31.17
60997,0.19,-1.00,-0.10,-11.74,17.02,-37.68,31.26
61007,0.19,-1.00,-0.08,-20.76,13.18,-44.35,31.21
61017,0.21,-1.00,-0.06,-27.15,9.19,-49.33,31.21
61027,0.21,-1.00,-0.03,-33.83,6.67,-53.44,31.21
61037,0.20,-0.98,-0.03,-36.84,4.69,-54.85,31.21
61047,0.19,-0.95,-0.02,-37.21,3.65,-52.82,31.21
61057,0.18,-0.92,-0.03,-36.24,2.85,-46.72,31.21
61067,0.17,-0.91,-0.04,-36.73,3.19,-39.68,31.21
61077,0.19,-0.90,-0.04,-36.56,5.16,-32.32,31.21
61087,0.22,-0.89,-0.06,-36.27,2.93,-25.33,31.21
61097,0.24,-0.90,-0.09,-36.64,3.22,-20.02,31.26
61107,0.26,-0.92,-0.08,-37.44,3.40,-15.74,31.17
61117,0.26,-0.91,-0.11,-38.67,3.27,-12.40,31.17
61127,0.27,-0.91,-0.14,-42.14,3.79,-10.63,31.17
61137,0.29,-0.91,-0.15,-46.93,3.57,-10.12,31.26
61147,0.29,-0.92,-0.13,-52.31,0.92,-10.82,31.26
61157,0.29,-0.91,-0.15,-57.79,-0.78,-10.99,31.26
61167,0.29,-0.94,-0.13,-62.31,-1.36,-11.02,31.26
61177,0.30,-0.99,-0.11,-62.18,-1.21,-10.31,31.21
61187,0.29,-1.03,-0.12,-60.69,-0.08,-9.42,31.21
61197,0.29,-1.04,-0.10,-57.40,0.26,-8.27,31.12
61207,0.27,-1.06,-0.09,-54.34,0.12,-6.47,31.31
61217,0.27,-1.05,-0.12,-52.02,1.18,-4.40,31.21
61227,0.27,-1.06,-0.14,-50.40,0.29,-2.44,31.21
61237,0.28,-1.05,-0.15,-49.91,-0.63,-1.40,31.21
61247,0.30,-1.06,-0.16,-48.29,-0.92,-0.89,31.21
61257,0.31,-1.07,-0.16,-45.36,-0.18,-1.73,31.21
61267,0.33,-1.09,-0.14,-39.57,1.16,-3.54,31.26
61277,0.33,-1.09,-0.14,-33.69,2.70,-5.34,31.26
61287,0.32,-1.09,-0.14,-28.53,3.57,-6.40,31.17
61297,0.32,-1.06,-0.16,-24.95,4.37,-6.56,31.26
61307,0.33,-1.04,-0.16,-20.02,6.37,-5.54,31.17
61317,0.34,-1.02,-0.18,-15.13,8.26,-4.17,31.17
61327,0.33,-1.01,-0.20,-11.50,9.01,-2.75,31.07
61337,0.33,-1.00,-0.22,-8.02,10.67,-1.79,31.26
61347,0.33,-0.99,-0.22,-6.64,11.25,-1.47,31.21
61357,0.32,-1.00,-0.23,-6.79,10.63,-2.15,31.12
61367,0.32,-1.01,-0.21,-4.93,11.45,-4.12,31.12
61377,0.31,-1.03,-0.20,-4.09,11.50,-6.73,31.21
61387,0.30,-1.05,-0.20,-6.23,10.37,-8.60,31.21
61397,0.29,-1.04,-0.18,-7.95,9.85,-9.51,31.12
61407,0.29,-1.02,-0.20,-8.63,9.39,-8.84,31.21
61417,0.30,-1.00,-0.20,-8.90,9.16,-6.24,31.21
61427,0.29,-0.96,-0.22,-8.70,9.28,-1.82,31.21
61437,0.30,-0.94,-0.24,-8.31,10.53,3.05,31.12
61447,0.32,-0.93,-0.24,-9.13,12.35,6.63,31.07
61457,0.32,-0.94,-0.24,-10.98,12.20,8.17,31.17
61467,0.34,-0.94,-0.23,-14.66,13.57,5.97,31.17
61477,0.34,-0.95,-0.22,-17.68,12.35,1.13,31.17
61487,0.33,-0.98,-0.21,-19.48,9.80,-4.20,31.17
61497,0.31,-0.99,-0.19,-19.02,8.49,-9.92,31.26
61507,0.31,-0.98,-0.19,-18.06,9.79,-12.70,31.17
61517,0.30,-0.96,-0.20,-16.85,9.79,-12.27,31.21
61527,0.30,-0.95,-0.22,-14.99,11.88,-8.37,31.07
61537,0.30,-0.93,-0.23,-13.62,13.25,-2.75,31.21
61547,0.29,-0.92,-0.23,-12.50,14.00,3.60,31.21
61557,0.30,-0.91,-0.23,-12.47,15.76,8.38,31.12
61567,0.29,-0.94,-0.21,-11.79,15.33,10.44,31.21
61577,0.29,-0.96,-0.21,-11.74,14.17,9.60,31.12
61587,0.29,-0.98,-0.21,-11.94,11.53,7.22,31.12
61597,0.29,-1.01,-0.20,-11.42,10.37,3.85,31.21
61607,0.29,-1.03,-0.17,-10.27,7.95,0.53,31.21
61617,0.28,-1.04,-0.17,-7.62,6.72,-0.78,31.21
61627,0.27,-1.03,-0.18,-3.40,6.81,0.02,31.26
61637,0.27,-1.03,-0.18,0.98,8.35,0.85,31.17
61647,0.26,-1.03,-0.19,3.94,10.12,0.75,31.17
61657,0.24,-1.04,-0.21,4.18,10.24,-0.82,31.17
61667,0.22,-1.03,-0.21,3.27,7.50,-3.22,31.17
61677,0.19,-1.02,-0.21,1.19,3.65,-5.94,31.07
61687,0.18,-1.02,-0.20,-1.10,-0.78,-7.76,31.12
61697,0.19,-1.01,-0.19,-2.99,-4.49,-8.38,31.26
61707,0.18,-1.02,-0.16,-2.11,-6.87,-8.12,31.17
61717,0.18,-1.01,-0.16,1.05,-7.85,-6.14,31.12
61727,0.18,-1.00,-0.16,4.64,-9.19,-3.27,31.21
61737,0.20,-0.98,-0.16,8.12,-10.02,0.79,31.21
61747,0.23,-0.96,-0.19,11.50,-9.85,5.40,31.02
61757,0.25,-0.94,-0.21,14.14,-10.11,9.74,31.12
61767,0.29,-0.92,-0.23,15.68,-10.20,14.09,31.12
61777,0.32,-0.91,-0.26,15.56,-9.25,15.65,31.21
61787,0.36,-0.92,-0.28,12.23,-8.44,14.34,31.21
61797,0.38,-0.94,-0.27,7.30,-8.96,7.73,31.17
61807,0.38,-0.97,-0.26,2.72,-10.44,-1.98,31.07
61817,0.36,-1.00,-0.22,-1.22,-12.23,-13.07,31.17
61827,0.31,-1.03,-0.16,-3.33,-14.69,-23.92,31.26
61837,0.25,-1.05,-0.11,-3.02,-15.51,-30.87,31.07
61847,0.22,-1.05,-0.06,2.96,-15.47,-33.13,31.26
61857,0.18,-1.03,-0.04,13.02,-14.64,-30.37,31.12
61867,0.17,-0.99,-0.07,24.93,-13.60,-22.95,31.26
61877,0.17,-0.94,-0.14,34.87,-12.67,-13.95,31.17
61887,0.17,-0.92,-0.21,38.92,-13.54,-4.99,31.12
61897,0.15,-0.90,-0.25,37.65,-17.92,1.97,31.21
61907,0.20,-0.90,-0.31,29.01,-17.98,5.02,31.12
61917,0.21,-0.92,-0.31,17.36,-21.27,2.50,31.21
61927,0.22,-0.97,-0.27,5.57,-25.68,-4.20,31.21
61937,0.22,-1.02,-0.21,-3.24,-31.34,-13.22,31.21
61947,0.23,-1.06,-0.14,-6.52,-36.90,-21.18,31.12
61957,0.21,-1.11,-0.08,-5.85,-40.26,-27.63,31.12
61967,0.20,-1.11,-0.05,-0.26,-41.50,-30.27,31.21
61977,0.18,-1.10,-0.04,7.98,-42.14,-28.52,31.21
61987,0.16,-1.08,-0.06,16.18,-43.02,-23.15,31.17
61997,0.15,-1.06,-0.10,23.21,-43.91,-15.02,31.17
62007,0.15,-1.03,-0.12,27.76,-44.67,-6.95,31.17
62017,0.16,-1.01,-0.16,29.44,-46.85,-0.20,31.17
62027,0.16,-1.01,-0.17,29.91,-50.21,4.52,31.17
62037,0.17,-0.99,-0.17,29.42,-53.19,7.02,31.26
62047,0.19,-0.98,-0.19,28.26,-55.82,8.24,31.07
62057,0.22,-0.98,-0.20,24.64,-58.35,7.80,31.26
62067,0.24,-0.98,-0.22,20.93,-60.32,5.80,31.12
62077,0.28,-0.98,-0.23,16.34,-61.10,3.42,31.12
62087,0.29,-0.99,-0.20,13.05,-61.68,-0.20,31.12
62097,0.30,-1.01,-0.17,12.35,-62.08,-4.20,31.21
62107,0.29,-1.02,-0.13,13.94,-62.47,-7.44,31.12
62117,0.27,-1.02,-0.15,17.24,-62.09,-9.11,31.21
62127,0.21,-1.03,-0.13,20.99,-63.92,-8.92,31.12
62137,0.20,-1.01,-0.12,25.24,-64.18,-5.76,31.12
62147,0.18,-1.01,-0.13,29.51,-64.55,-1.45,31.12
62157,0.18,-1.01,-0.16,32.34,-63.92,3.33,31.21
62167,0.19,-0.99,-0.18,32.41,-64.49,6.98,31.12
62177,0.22,-1.00,-0.22,30.84,-65.60,9.28,31.17
62187,0.24,-1.00,-0.25,26.70,-66.82,9.18,31.17
62197,0.27,-0.99,-0.26,21.60,-69.21,7.28,31.17
62207,0.29,-1.00,-0.24,17.69,-69.89,3.86,31.07
62217,0.31,-1.01,-0.23,14.84,-70.43,-0.92,31.26
62227,0.31,-1.01,-0.21,12.90,-70.31,-5.42,31.17
62237,0.30,-1.01,-0.21,13.48,-70.49,-8.20,31.12
62247,0.29,-1.02,-0.20,16.03,-69.57,-10.02,31.07
62257,0.28,-1.02,-0.20,17.19,-67.34,-11.36,31.17
62267,0.26,-1.03,-0.18,18.90,-67.68,-13.31,31.12
62277,0.25,-1.02,-0.20,21.30,-68.67,-15.63,31.21
62287,0.22,-1.03,-0.22,20.53,-70.20,-19.22,31.21
62297,0.19,-1.04,-0.23,17.34,-74.29,-23.63,31.21
62307,0.17,-1.04,-0.21,13.69,-78.24,-28.38,31.21
62317,0.17,-1.08,-0.18,12.96,-80.31,-31.91,31.21
62327,0.18,-1.13,-0.14,17.16,-78.79,-34.35,31.21
62337,0.14,-1.15,-0.11,24.82,-79.10,-35.98,31.21
62347,0.12,-1.13,-0.12,32.40,-79.37,-34.60,31.17
62357,0.10,-1.11,-0.16,38.81,-80.61,-30.20,31.17
62367,0.08,-1.07,-0.21,41.97,-81.59,-23.98,31.17
62377,0.09,-1.03,-0.22,44.72,-82.08,-17.66,31.26
62387,0.12,-1.00,-0.24,46.44,-81.76,-12.95,31.17
62397,0.15,-0.97,-0.26,47.18,-82.11,-10.56,31.17
62407,0.19,-0.95,-0.27,46.85,-82.90,-9.63,31.21
62417,0.19,-0.93,-0.29,44.46,-85.22,-9.91,31.17
62427,0.20,-0.91,-0.30,39.47,-88.67,-9.83,31.12
62437,0.21,-0.91,-0.29,34.05,-90.08,-9.95,31.12
62447,0.22,-0.91,-0.27,30.15,-91.91,-10.35,31.21
62457,0.23,-0.91,-0.27,27.51,-92.72,-10.47,31.21
62467,0.25,-0.92,-0.26,25.60,-92.18,-10.67,31.12
62477,0.25,-0.92,-0.26,24.46,-91.30,-10.43,31.21
62487,0.25,-0.91,-0.27,23.97,-89.91,-9.31,31.21
62497,0.25,-0.91,-0.26,23.04,-89.42,-8.50,31.21
62507,0.23,-0.91,-0.26,20.84,-90.85,-7.07,31.26
62517,0.24,-0.92,-0.23,20.27,-91.74,-7.42,31.17
62527,0.25,-0.93,-0.23,21.47,-92.73,-8.85,31.17
62537,0.26,-0.94,-0.22,23.15,-92.56,-10.47,31.07
62547,0.26,-0.93,-0.22,26.06,-92.23,-11.73,31.17
62557,0.26,-0.94,-0.22,29.48,-91.42,-12.79,31.17
62567,0.26,-0.94,-0.24,29.88,-89.79,-12.90,31.07
62577,0.25,-0.91,-0.27,26.73,-87.11,-13.42,31.12
62587,0.23,-0.90,-0.28,22.96,-86.15,-12.26,31.17
62597,0.22,-0.90,-0.28,20.26,-84.72,-11.01,31.31
62607,0.23,-0.89,-0.29,16.21,-82.78,-10.44,31.12
62617,0.22,-0.89,-0.25,12.56,-83.69,-11.25,31.12
62627,0.24,-0.91,-0.25,10.90,-85.25,-12.31,31.21
62637,0.25,-0.93,-0.25,8.49,-84.20,-13.86,31.12
62647,0.25,-0.94,-0.23,6.70,-83.33,-15.82,31.21
62657,0.23,-0.95,-0.21,7.30,-81.91,-17.54,31.12
62667,0.22,-0.96,-0.21,8.72,-83.01,-17.34,31.12
62677,0.21,-0.97,-0.21,8.98,-83.44,-15.31,31.21
62687,0.22,-0.94,-0.22,8.73,-82.00,-12.34,31.17
62697,0.21,-0.93,-0.21,9.56,-79.63,-9.27,31.17
62707,0.20,-0.93,-0.22,10.09,-78.82,-5.10,31.17
62717,0.19,-0.93,-0.23,9.92,-79.19,-1.57,31.26
62727,0.19,-0.95,-0.21,9.28,-79.92,1.02,31.17
62737,0.21,-0.97,-0.21,9.88,-79.57,3.04,31.17
62747,0.21,-1.00,-0.20,9.54,-78.37,2.20,31.12
62757,0.21,-1.02,-0.19,8.23,-78.63,0.24,31.07
62767,0.21,-1.02,-0.20,8.90,-80.41,-1.66,31.12
62777,0.21,-1.02,-0.19,10.72,-80.44,-1.68,31.12
62787,0.20,-1.01,-0.21,14.20,-79.08,0.18,31.12
62797,0.19,-1.02,-0.22,16.50,-76.72,3.01,31.21
62807,0.19,-1.01,-0.24,18.47,-75.34,6.35,31.12
62817,0.20,-1.02,-0.26,19.02,-73.69,8.46,31.12
62827,0.20,-1.04,-0.24,16.79,-74.08,7.05,31.12
62837,0.21,-1.06,-0.23,14.84,-74.79,3.08,31.12
62847,0.21,-1.09,-0.21,12.78,-77.08,-3.21,31.12
62857,0.20,-1.10,-0.19,10.38,-78.29,-10.53,31.07
62867,0.20,-1.07,-0.16,9.37,-78.99,-15.85,31.17
62877,0.18,-1.05,-0.16,11.57,-78.32,-17.02,31.17
62887,0.17,-1.02,-0.18,14.72,-77.31,-14.27,31.17
62897,0.16,-0.99,-0.20,18.72,-75.01,-8.40,31.17
62907,0.15,-0.98,-0.23,20.34,-72.82,-1.86,31.07
62917,0.15,-0.96,-0.24,20.12,-72.05,4.06,31.21
62927,0.16,-0.96,-0.23,19.07,-73.45,8.67,31.17
62937,0.19,-0.96,-0.24,18.67,-72.85,10.56,31.17
62947,0.22,-0.97,-0.25,17.28,-71.33,10.08,31.17
62957,0.24,-0.98,-0.25,14.38,-70.85,7.60,31.12
62967,0.23,-1.00,-0.24,10.84,-71.30,3.27,31.12
62977,0.24,-1.00,-0.23,7.97,-72.12,-0.87,31.12
62987,0.25,-0.99,-0.22,7.31,-71.59,-3.16,31.12
62997,0.25,-0.97,-0.22,8.12,-68.63,-3.21,31.12
63007,0.25,-0.94,-0.23,10.67,-66.40,-1.74,31.12
63017,0.23,-0.91,-0.22,11.76,-62.27,1.68,31.21
63027,0.22,-0.88,-0.23,13.50,-60.49,6.35,31.12
63037,0.22,-0.85,-0.25,14.76,-57.11,12.32,31.12
63047,0.22,-0.85,-0.26,14.82,-51.95,18.76,31.17
63057,0.22,-0.85,-0.29,14.35,-47.40,24.40,31.17
63067,0.20,-0.88,-0.28,10.64,-44.29,27.51,31.07
63077,0.21,-0.93,-0.24,6.44,-43.88,27.16,31.17
63087,0.24,-0.98,-0.20,2.69,-43.34,23.16,31.17
63097,0.23,-1.03,-0.19,2.43,-40.87,19.08,31.07
63107,0.21,-1.06,-0.16,3.74,-38.18,16.11,31.17
63117,0.19,-1.10,-0.15,6.76,-36.82,15.39,31.17
63127,0.18,-1.14,-0.16,8.29,-35.02,13.91,31.12
63137,0.16,-1.16,-0.13,8.35,-35.54,10.99,31.02
63147,0.16,-1.16,-0.14,8.24,-36.29,7.98,31.12
63157,0.18,-1.15,-0.13,8.81,-36.52,5.11,31.12
63167,0.19,-1.14,-0.15,8.73,-35.45,2.96,31.12
63177,0.18,-1.12,-0.16,8.78,-35.45,1.77,31.12
63187,0.18,-1.10,-0.15,8.18,-35.04,1.56,31.12
63197,0.18,-1.10,-0.14,6.29,-35.88,0.35,31.12
63207,0.18,-1.11,-0.15,4.70,-37.76,-1.59,31.17
63217,0.19,-1.09,-0.13,4.31,-39.28,-4.56,31.17
63227,0.20,-1.08,-0.12,5.73,-38.20,-6.78,31.17
63237,0.18,-1.06,-0.14,7.02,-38.12,-7.65,31.07
63247,0.18,-1.06,-0.12,6.53,-37.42,-7.50,31.17
63257,0.18,-1.04,-0.13,5.76,-37.15,-7.10,31.17
63267,0.18,-1.04,-0.12,4.92,-36.60,-5.82,31.17
63277,0.17,-1.02,-0.12,5.02,-37.44,-4.06,31.17
63287,0.18,-1.03,-0.12,7.95,-36.23,-0.09,31.07
63297,0.21,-1.01,-0.13,10.87,-33.74,3.40,31.21
63307,0.22,-0.98,-0.14,12.67,-31.15,5.89,31.12
63317,0.23,-0.97,-0.15,13.28,-28.18,6.31,31.21
63327,0.24,-0.96,-0.15,12.08,-26.11,4.70,31.12
63337,0.26,-0.95,-0.16,10.29,-25.39,2.49,31.21
63347,0.26,-0.96,-0.15,8.75,-23.86,-0.55,31.12
63357,0.25,-0.97,-0.15,7.15,-23.21,-2.89,31.12
63367,0.26,-0.98,-0.14,6.26,-21.62,-4.37,31.12
63377,0.28,-0.99,-0.13,6.95,-19.44,-6.35,31.17
63387,0.28,-0.98,-0.12,6.46,-17.15,-9.76,31.17
63397,0.27,-0.95,-0.11,4.41,-16.05,-14.92,31.07
63407,0.26,-0.95,-0.09,2.49,-16.38,-21.04,31.17
63417,0.23,-0.95,-0.09,0.09,-16.58,-26.34,31.07
63427,0.20,-0.97,-0.09,-1.42,-18.72,-28.84,31.17
63437,0.16,-0.96,-0.07,-1.39,-18.37,-27.66,31.07
63447,0.14,-0.97,-0.07,-0.38,-17.13,-23.27,31.07
63457,0.13,-0.99,-0.06,0.95,-14.90,-19.37,31.17
63467,0.12,-1.00,-0.05,2.37,-15.51,-17.05,31.12
63477,0.11,-0.99,-0.05,3.68,-16.41,-14.29,31.12
63487,0.10,-0.99,-0.05,4.50,-17.76,-11.60,31.21
63497,0.08,-0.99,-0.05,3.92,-18.66,-9.40,31.21
63507,0.07,-0.99,-0.05,2.79,-20.32,-7.36,31.12
63517,0.08,-1.00,-0.04,2.14,-21.27,-5.91,31.12
63527,0.09,-1.00,-0.04,1.85,-22.79,-5.54,31.12
63537,0.09,-1.00,-0.03,1.73,-24.38,-4.87,31.12
63547,0.09,-0.99,-0.04,2.49,-25.51,-2.92,31.21
63557,0.10,-1.01,-0.03,2.90,-26.52,-0.37,31.07
63567,0.11,-1.02,-0.03,3.56,-27.13,0.93,31.07
63577,0.11,-1.05,-0.01,4.32,-28.11,0.85,31.17
63587,0.12,-1.07,-0.01,6.08,-29.39,0.12,31.26
63597,0.13,-1.07,-0.03,7.74,-29.68,-0.52,31.17
63607,0.16,-1.06,-0.02,9.10,-29.54,-1.95,31.07
63617,0.15,-1.03,-0.04,9.37,-30.27,-4.06,31.07
63627,0.14,-1.02,-0.05,8.99,-32.41,-6.56,31.17
63637,0.13,-1.03,-0.06,8.69,-34.87,-8.12,31.12
63647,0.11,-1.02,-0.07,8.46,-35.42,-7.18,31.12
63657,0.11,-1.03,-0.06,7.45,-35.01,-4.76,31.12
63667,0.12,-1.04,-0.04,7.69,-34.58,-2.61,31.21
63677,0.11,-1.05,-0.04,8.29,-34.99,-2.26,31.12
63687,0.13,-1.03,-0.03,8.98,-35.79,-2.73,31.21
63697,0.13,-1.03,-0.05,10.15,-36.70,-3.85,31.12
