Millis,Acce_X,Acce_Y,Acce_Z,Gyro_X,Gyro_Y,Gyro_Z,Temp
9197,-0.21,-0.81,0.91,-14.87,-1.83,-24.75,31.45
9207,-0.21,-0.73,0.84,-10.69,-7.01,-20.43,31.45
9217,-0.21,-0.70,0.78,-9.36,-11.73,-16.06,31.40
9227,-0.20,-0.71,0.75,-10.76,-16.38,-13.62,31.35
9237,-0.19,-0.72,0.71,-13.11,-21.10,-12.02,31.54
9247,-0.19,-0.74,0.67,-18.08,-23.88,-10.26,31.54
9257,-0.17,-0.76,0.66,-22.00,-23.36,-8.05,31.49
9267,-0.12,-0.78,0.67,-24.26,-18.95,-7.45,31.59
9277,-0.06,-0.76,0.65,-25.85,-10.23,-8.15,31.49
9287,-0.07,-0.75,0.66,-30.09,0.09,-8.73,31.40
9297,-0.09,-0.76,0.72,-33.05,5.45,-9.34,31.40
9307,-0.09,-0.77,0.74,-35.01,7.69,-10.11,31.40
9317,-0.11,-0.79,0.78,-35.74,6.11,-9.74,31.40
9327,-0.11,-0.81,0.79,-34.21,2.96,-9.07,31.40
9337,-0.11,-0.82,0.81,-32.93,1.62,-8.03,31.40
9347,-0.11,-0.83,0.82,-32.93,-0.55,-7.68,31.45
9357,-0.08,-0.86,0.84,-32.35,-1.77,-8.14,31.45
9367,-0.04,-0.88,0.89,-33.44,0.64,-8.81,31.35
9377,-0.04,-0.92,0.98,-34.24,2.84,-10.47,31.45
9387,-0.06,-0.93,1.07,-32.70,1.95,-11.68,31.45
9397,-0.08,-0.91,1.14,-31.04,-0.21,-12.00,31.35
9407,-0.09,-0.90,1.20,-30.99,-5.16,-11.71,31.45
9417,-0.09,-0.91,1.30,-29.59,-11.08,-12.08,31.45
9427,-0.08,-0.94,1.40,-27.88,-15.77,-13.16,31.40
9437,-0.07,-0.99,1.51,-22.47,-14.00,-14.18,31.31
9447,-0.06,-1.03,1.64,-13.42,-8.79,-12.47,31.40
9457,-0.06,-1.05,1.77,-1.88,-4.23,-9.80,31.49
9467,-0.06,-1.10,1.85,10.55,-3.68,-8.14,31.49
9477,-0.06,-1.14,1.89,24.35,-5.65,-8.43,31.49
9487,-0.07,-1.14,1.86,38.14,-10.67,-9.34,31.49
9497,-0.08,-1.15,1.80,48.05,-17.83,-8.72,31.40
9507,-0.06,-1.20,1.75,57.22,-22.00,-9.36,31.40
9517,-0.06,-1.30,1.74,70.38,-24.06,-12.26,31.40
9527,-0.06,-1.33,1.68,88.47,-22.56,-13.57,31.40
9537,-0.08,-1.30,1.59,106.40,-22.63,-12.72,31.45
9547,-0.08,-1.25,1.48,116.43,-21.88,-11.98,31.45
9557,-0.07,-1.19,1.38,121.97,-20.40,-11.47,31.45
9567,-0.06,-1.17,1.30,123.10,-19.77,-11.42,31.45
9577,-0.05,-1.16,1.25,124.23,-18.50,-12.15,31.35
9587,-0.04,-1.18,1.19,129.21,-15.80,-11.33,31.45
9597,-0.03,-1.21,1.16,136.64,-10.81,-8.58,31.40
9607,-0.02,-1.23,1.11,146.73,-5.59,-6.03,31.45
9617,0.04,-1.23,1.05,154.15,1.48,-3.36,31.40
9627,0.11,-1.17,0.92,157.85,12.27,-2.98,31.40
9637,0.17,-1.10,0.83,154.03,30.11,-3.30,31.49
9647,0.20,-1.05,0.78,147.53,48.53,-6.15,31.40
9657,0.14,-1.01,0.81,140.29,60.18,-10.40,31.40
9667,0.06,-0.99,0.86,133.95,64.15,-15.25,31.49
9677,-0.07,-0.97,0.93,130.60,59.02,-16.12,31.40
9687,-0.18,-0.96,1.02,131.88,47.48,-12.44,31.49
9697,-0.23,-0.97,1.12,139.82,30.66,-4.98,31.40
9707,-0.25,-0.98,1.18,147.22,17.18,-0.56,31.35
9717,-0.27,-0.94,1.20,153.50,3.05,1.94,31.35
9727,-0.27,-0.90,1.18,156.06,-10.67,5.74,31.45
9737,-0.25,-0.88,1.15,155.10,-18.87,9.54,31.45
9747,-0.21,-0.90,1.12,152.79,-26.14,11.91,31.45
9757,-0.13,-0.90,1.06,153.22,-32.14,13.22,31.45
9767,-0.08,-0.90,0.99,152.82,-34.44,13.01,31.31
9777,-0.03,-0.86,0.95,152.82,-38.11,11.39,31.45
9787,0.01,-0.81,0.90,149.53,-35.73,7.27,31.35
9797,-0.01,-0.77,0.88,143.74,-35.33,4.79,31.35
9807,-0.01,-0.74,0.87,140.79,-33.98,4.58,31.40
9817,-0.01,-0.70,0.86,139.94,-31.08,3.76,31.40
9827,-0.01,-0.68,0.85,139.31,-29.10,2.99,31.40
9837,-0.04,-0.65,0.85,139.98,-30.31,3.42,31.40
9847,-0.03,-0.59,0.83,141.94,-28.90,6.92,31.40
9857,0.00,-0.54,0.78,141.31,-24.09,9.02,31.40
9867,0.04,-0.51,0.76,137.91,-19.79,10.00,31.40
9877,0.06,-0.48,0.75,134.90,-14.96,9.71,31.40
9887,0.07,-0.46,0.73,131.37,-10.44,8.09,31.45
9897,0.08,-0.44,0.72,128.00,-6.56,6.37,31.35
9907,0.08,-0.43,0.76,126.92,-4.95,2.52,31.35
9917,0.06,-0.43,0.79,128.32,-6.31,-3.11,31.35
9927,0.03,-0.39,0.78,129.95,-6.82,-7.47,31.35
9937,0.01,-0.34,0.77,132.63,-7.08,-9.44,31.35
9947,0.01,-0.28,0.73,133.40,-5.57,-9.79,31.35
9957,-0.01,-0.24,0.69,129.97,-3.51,-8.73,31.35
9967,-0.01,-0.19,0.70,127.66,-5.18,-8.73,31.35
9977,-0.00,-0.17,0.67,125.91,-3.88,-9.15,31.40
9987,0.00,-0.12,0.68,125.02,-4.06,-10.70,31.31
9997,-0.02,-0.09,0.67,123.01,-2.24,-10.81,31.31
10007,-0.04,-0.06,0.68,122.18,-4.40,-10.27,31.40
10017,-0.08,-0.01,0.69,120.41,-7.60,-10.75,31.31
10027,-0.10,0.01,0.72,117.34,-16.73,-12.02,31.40
10037,-0.08,0.04,0.70,116.00,-25.98,-13.59,31.31
10047,-0.07,0.07,0.69,113.24,-31.44,-14.26,31.31
10057,-0.03,0.08,0.70,112.66,-33.02,-12.32,31.40
10067,0.00,0.14,0.71,111.85,-26.90,-9.62,31.35
10077,0.04,0.15,0.78,108.31,-23.97,-5.24,31.35
10087,0.03,0.08,0.84,105.08,-32.70,-4.66,31.45
10097,0.04,-0.01,0.89,103.21,-47.33,-11.34,31.35
10107,0.01,-0.07,0.87,101.34,-68.18,-22.67,31.35
10117,-0.00,-0.08,0.86,105.04,-83.86,-36.98,31.35
10127,-0.03,-0.11,0.86,115.15,-97.45,-48.21,31.35
10137,-0.03,-0.09,0.75,130.76,-100.67,-51.54,31.35
10147,-0.02,0.04,0.61,144.75,-96.85,-49.60,31.49
10157,0.05,0.18,0.45,153.94,-76.15,-40.75,31.35
10167,0.07,0.26,0.34,155.48,-54.92,-28.64,31.31
10177,0.13,0.33,0.27,148.29,-37.98,-20.12,31.31
10187,0.11,0.39,0.23,138.21,-26.95,-17.48,31.40
10197,0.11,0.43,0.21,123.79,-23.68,-20.12,31.49
10207,0.12,0.45,0.22,113.69,-24.81,-22.20,31.40
10217,0.15,0.48,0.23,108.60,-24.27,-25.02,31.31
10227,0.18,0.47,0.23,104.12,-28.20,-26.11,31.31
10237,0.26,0.44,0.23,103.68,-26.34,-26.73,31.40
10247,0.28,0.39,0.28,102.29,-21.69,-28.21,31.21
10257,0.34,0.37,0.27,96.41,-8.55,-31.71,31.45
10267,0.33,0.37,0.32,93.73,6.41,-37.63,31.35
10277,0.36,0.33,0.36,95.37,18.53,-45.30,31.35
10287,0.24,0.36,0.41,98.24,17.68,-54.17,31.35
10297,0.15,0.39,0.41,99.39,12.32,-62.93,31.35
10307,0.07,0.44,0.44,103.28,1.22,-62.76,31.26
10317,0.03,0.48,0.44,103.89,-2.43,-55.89,31.31
10327,0.01,0.47,0.45,104.00,0.46,-44.02,31.35
10337,0.04,0.46,0.49,104.11,15.04,-33.82,31.35
10347,0.06,0.43,0.48,107.07,24.70,-29.25,31.31
10357,0.09,0.42,0.47,105.16,29.53,-37.85,31.40
10367,0.09,0.50,0.39,101.02,30.00,-52.17,31.31
10377,-0.06,0.60,0.39,93.05,25.39,-64.95,31.31
10387,-0.13,0.68,0.32,82.99,18.32,-74.41,31.40
10397,-0.30,0.81,0.30,76.34,5.02,-72.89,31.31
10407,-0.41,0.87,0.32,75.13,-7.22,-60.78,31.31
10417,-0.42,0.89,0.34,80.26,-20.40,-39.28,31.40
10427,-0.33,0.90,0.32,86.55,-34.26,-15.28,31.31
10437,-0.13,0.88,0.28,87.27,-38.27,1.40,31.35
10447,0.04,0.83,0.28,82.73,-33.73,8.79,31.35
10457,0.21,0.84,0.21,77.65,-15.98,6.79,31.45
10467,0.20,0.78,0.21,76.12,8.92,-0.89,31.26
10477,0.13,0.75,0.29,70.09,18.79,-15.80,31.35
10487,0.04,0.81,0.26,69.62,9.71,-23.59,31.35
10497,-0.02,0.81,0.25,70.75,3.53,-30.56,31.35
10507,-0.05,0.84,0.20,71.60,-22.61,-37.07,31.35
10517,-0.04,0.87,0.13,69.44,-33.97,-42.78,31.45
10527,-0.03,0.84,0.14,68.37,-34.06,-44.50,31.31
10537,-0.02,0.84,0.14,67.65,-28.53,-43.37,31.40
10547,-0.03,0.86,0.13,72.03,-17.50,-36.81,31.40
10557,-0.00,0.90,0.09,76.53,-2.63,-26.82,31.40
10567,0.02,0.91,0.03,79.50,9.91,-19.27,31.31
10577,0.03,0.92,0.01,78.11,16.95,-17.40,31.40
10587,0.03,0.93,-0.01,75.02,19.53,-19.10,31.40
10597,0.03,0.92,-0.04,72.87,18.15,-20.64,31.31
10607,0.02,0.90,-0.06,68.70,20.82,-24.17,31.31
10617,0.01,0.88,-0.08,65.71,23.24,-28.61,31.35
10627,-0.03,0.86,-0.04,63.04,23.40,-31.94,31.35
10637,-0.05,0.86,-0.08,62.05,19.07,-34.43,31.45
10647,-0.06,0.85,-0.08,57.89,13.25,-36.14,31.35
10657,-0.03,0.87,-0.10,54.18,6.84,-39.11,31.35
10667,0.04,0.85,-0.12,51.60,4.63,-45.68,31.35
10677,0.16,0.85,-0.23,46.37,7.92,-56.64,31.35
10687,0.22,0.80,-0.30,38.96,17.48,-68.70,31.35
10697,0.17,0.72,-0.29,29.42,25.50,-79.05,31.49
10707,0.12,0.76,-0.26,22.60,33.37,-85.47,31.35
10717,0.11,0.77,-0.24,26.46,35.83,-85.71,31.40
10727,0.09,0.70,-0.24,27.74,39.71,-86.63,31.31
10737,0.09,0.71,-0.25,28.52,43.62,-86.89,31.40
10747,0.11,0.73,-0.32,29.42,51.10,-83.42,31.40
10757,0.06,0.69,-0.30,25.28,59.56,-82.82,31.40
10767,-0.05,0.67,-0.24,14.61,63.07,-88.21,31.31
10777,-0.16,0.66,-0.20,8.29,60.18,-96.66,31.31
10787,-0.30,0.70,-0.19,6.27,51.56,-113.15,31.31
10797,-0.41,0.78,-0.22,15.02,35.21,-128.58,31.31
10807,-0.51,0.85,-0.23,24.18,20.66,-141.77,31.31
10817,-0.65,1.02,-0.33,27.97,4.70,-156.56,31.35
10827,-0.82,1.15,-0.41,26.99,-9.21,-169.85,31.35
10837,-1.03,1.25,-0.40,19.76,-21.33,-176.66,31.35
10847,-1.22,1.37,-0.44,8.41,-25.34,-178.85,31.26
10857,-1.43,1.51,-0.47,-0.61,-18.02,-174.92,31.35
10867,-1.63,1.60,-0.48,-1.24,-9.04,-158.50,31.40
10877,-1.82,1.65,-0.46,0.49,-6.49,-123.80,31.35
10887,-1.88,1.67,-0.43,-0.15,-2.52,-76.09,31.35
10897,-1.83,1.61,-0.37,-4.43,3.10,-20.11,31.35
10907,-1.64,1.51,-0.32,-12.40,7.16,33.10,31.40
10917,-1.37,1.36,-0.26,-23.57,18.03,71.37,31.31
10927,-1.07,1.18,-0.20,-36.76,23.08,94.58,31.40
10937,-0.84,0.98,-0.09,-45.97,21.65,104.63,31.31
10947,-0.58,0.79,0.03,-46.20,11.50,107.34,31.31
10957,-0.37,0.65,0.10,-44.08,3.53,98.52,31.31
10967,-0.21,0.52,0.17,-36.03,-8.27,88.17,31.31
10977,-0.06,0.48,0.19,-24.76,-7.54,76.99,31.40
10987,0.02,0.50,0.19,-16.14,-1.36,62.73,31.40
10997,0.02,0.52,0.22,-14.15,-3.11,44.73,31.26
11007,0.01,0.57,0.19,-14.58,-0.26,24.44,31.35
11017,-0.06,0.62,0.18,-11.19,-4.79,8.03,31.45
11027,-0.16,0.67,0.17,-8.44,-13.33,-5.15,31.35
11037,-0.24,0.73,0.15,-3.24,-25.28,-15.24,31.35
11047,-0.31,0.80,0.10,1.34,-32.82,-20.75,31.45
11057,-0.35,0.89,0.01,4.69,-30.84,-21.45,31.35
11067,-0.42,0.97,-0.05,5.85,-21.47,-18.12,31.26
11077,-0.50,1.03,-0.07,4.66,-10.61,-12.58,31.40
11087,-0.59,1.09,-0.10,3.39,-3.19,-5.80,31.31
11097,-0.65,1.14,-0.11,1.66,0.72,1.92,31.31
11107,-0.70,1.16,-0.12,-0.89,-1.73,10.08,31.31
11117,-0.70,1.17,-0.15,-4.38,-4.95,17.47,31.31
11127,-0.70,1.18,-0.14,-10.40,-6.96,23.19,31.40
11137,-0.68,1.16,-0.14,-17.77,-8.26,27.30,31.40
11147,-0.67,1.16,-0.12,-24.47,-8.18,29.85,31.40
11157,-0.68,1.15,-0.10,-28.27,-8.98,29.80,31.31
11167,-0.68,1.17,-0.11,-29.02,-10.14,29.53,31.35
11177,-0.70,1.19,-0.13,-28.75,-13.28,30.31,31.26
11187,-0.71,1.22,-0.14,-29.76,-15.25,31.62,31.45
11197,-0.73,1.27,-0.18,-32.20,-18.90,37.82,31.35
11207,-0.73,1.29,-0.21,-38.06,-16.87,47.50,31.45
11217,-0.72,1.29,-0.23,-45.94,-13.65,58.23,31.35
11227,-0.69,1.28,-0.22,-55.77,-12.89,67.27,31.26
11237,-0.63,1.23,-0.19,-62.87,-15.71,71.05,31.45
11247,-0.56,1.17,-0.16,-65.34,-29.88,67.95,31.31
11257,-0.45,1.12,-0.17,-68.08,-38.43,56.20,31.31
11267,-0.36,1.08,-0.16,-70.98,-47.71,39.39,31.21
11277,-0.31,1.01,-0.14,-78.69,-55.15,17.16,31.21
11287,-0.35,0.95,-0.03,-92.09,-69.07,-5.68,31.40
11297,-0.44,0.97,0.01,-105.53,-85.80,-15.10,31.31
11307,-0.47,0.99,0.00,-106.76,-88.82,-7.13,31.40
11317,-0.46,0.99,-0.00,-101.22,-73.18,9.89,31.31
11327,-0.46,0.97,0.02,-96.29,-52.79,26.99,31.26
11337,-0.47,0.99,-0.01,-92.98,-39.42,43.69,31.45
11347,-0.46,0.99,-0.04,-96.02,-27.63,56.50,31.45
11357,-0.44,0.97,-0.01,-99.83,-23.60,65.40,31.35
11367,-0.39,0.90,0.03,-105.08,-26.78,70.23,31.35
11377,-0.35,0.84,0.08,-111.11,-33.39,70.98,31.31
11387,-0.28,0.82,0.10,-115.48,-38.12,67.97,31.35
11397,-0.24,0.77,0.16,-118.35,-43.50,62.06,31.35
11407,-0.22,0.74,0.23,-114.67,-49.05,57.30,31.40
11417,-0.21,0.69,0.26,-105.48,-51.77,58.14,31.21
11427,-0.16,0.66,0.28,-97.60,-49.45,61.51,31.40
11437,-0.10,0.65,0.27,-91.19,-39.15,64.78,31.40
11447,-0.05,0.62,0.28,-87.47,-26.66,66.81,31.21
11457,0.00,0.61,0.29,-83.27,-14.87,67.25,31.40
11467,0.04,0.59,0.30,-80.02,-2.95,65.44,31.31
11477,0.05,0.58,0.33,-73.60,3.40,62.00,31.31
11487,0.06,0.55,0.36,-69.44,2.61,57.13,31.31
11497,0.08,0.54,0.39,-69.05,-2.34,48.20,31.35
11507,0.10,0.52,0.44,-66.69,-8.38,38.27,31.26
11517,0.12,0.50,0.50,-58.78,-16.69,28.99,31.26
11527,0.15,0.48,0.47,-49.80,-19.60,21.34,31.26
11537,0.17,0.50,0.44,-42.98,-15.92,16.21,31.35
11547,0.16,0.53,0.43,-40.78,-9.16,13.10,31.40
11557,0.14,0.57,0.44,-39.05,-5.50,11.34,31.26
11567,0.15,0.60,0.43,-36.41,-1.60,9.59,31.35
11577,0.13,0.63,0.39,-35.16,1.34,6.02,31.45
11587,0.11,0.62,0.43,-38.61,-1.66,0.15,31.31
11597,0.08,0.62,0.46,-43.94,-7.39,-7.59,31.21
11607,0.03,0.65,0.44,-47.62,-11.92,-10.38,31.31
11617,0.00,0.66,0.42,-49.57,-7.42,-6.95,31.31
11627,-0.04,0.68,0.44,-52.78,0.03,0.95,31.31
11637,-0.09,0.74,0.39,-55.42,8.55,12.69,31.21
11647,-0.11,0.73,0.41,-58.34,6.96,26.47,31.40
11657,-0.09,0.68,0.44,-63.69,-0.82,33.94,31.31
11667,-0.08,0.65,0.48,-71.10,-14.72,36.61,31.40
11677,-0.01,0.63,0.50,-76.23,-22.69,39.57,31.26
11687,0.03,0.61,0.49,-78.27,-22.49,40.46,31.35
11697,0.06,0.60,0.50,-82.96,-17.97,39.11,31.26
11707,0.07,0.59,0.52,-87.11,-12.76,36.89,31.26
11717,0.08,0.57,0.51,-90.85,-7.19,33.97,31.35
11727,0.08,0.54,0.55,-89.94,-3.05,29.31,31.26
11737,0.06,0.51,0.58,-85.37,0.06,24.02,31.35
11747,0.02,0.53,0.57,-78.89,-0.84,22.78,31.35
11757,-0.00,0.58,0.54,-75.02,-4.49,25.07,31.31
11767,-0.02,0.60,0.48,-79.97,-6.76,29.08,31.31
11777,-0.01,0.59,0.47,-88.00,-6.53,34.58,31.31
11787,0.02,0.55,0.46,-93.74,-1.92,39.19,31.40
11797,0.06,0.48,0.51,-94.98,2.53,42.47,31.31
11807,0.11,0.42,0.54,-91.19,9.91,43.54,31.40
11817,0.15,0.39,0.55,-86.20,19.51,43.62,31.31
11827,0.17,0.36,0.57,-82.14,26.40,42.29,31.31
11837,0.16,0.33,0.63,-84.64,31.45,36.87,31.21
11847,0.13,0.34,0.65,-89.01,35.22,30.95,31.21
11857,0.10,0.36,0.66,-90.60,37.21,28.35,31.35
11867,0.06,0.37,0.64,-92.81,40.78,28.70,31.26
11877,0.03,0.37,0.64,-97.24,42.98,29.98,31.26
11887,-0.01,0.34,0.71,-102.78,40.87,29.31,31.26
11897,-0.05,0.27,0.80,-105.13,36.15,30.12,31.35
11907,-0.08,0.22,0.89,-101.73,26.06,28.79,31.35
11917,-0.07,0.17,0.96,-95.19,14.95,27.98,31.26
11927,-0.05,0.15,0.96,-87.28,2.98,27.69,31.31
11937,0.00,0.14,0.93,-80.18,-4.84,25.28,31.31
11947,0.05,0.18,0.88,-76.85,-8.37,20.99,31.31
11957,0.07,0.22,0.80,-81.28,-8.09,17.39,31.40
11967,0.06,0.29,0.75,-89.66,-4.99,14.03,31.31
11977,0.00,0.35,0.74,-98.00,-7.44,11.95,31.31
11987,-0.07,0.28,0.81,-111.56,-24.69,8.09,31.31
11997,-0.11,0.21,0.89,-125.92,-54.40,0.46,31.21
12007,-0.14,0.17,0.95,-140.03,-88.37,-7.39,31.31
12017,-0.21,0.14,1.06,-143.54,-123.66,-5.76,31.31
12027,-0.13,0.08,1.09,-133.34,-146.82,9.79,31.26
12037,0.07,0.02,1.07,-108.37,-140.11,28.32,31.35
12047,0.29,-0.04,0.99,-85.47,-116.38,41.28,31.26
12057,0.44,-0.03,0.90,-72.49,-86.23,45.59,31.35
12067,0.51,0.01,0.82,-76.67,-56.67,42.90,31.35
12077,0.49,0.04,0.82,-92.72,-39.05,35.71,31.26
12087,0.43,0.08,0.91,-106.11,-30.40,26.43,31.35
12097,0.37,0.04,0.95,-113.07,-29.50,19.30,31.31
12107,0.37,-0.01,0.96,-108.27,-23.21,21.37,31.40
12117,0.34,-0.05,0.99,-100.03,-12.69,25.04,31.31
12127,0.34,-0.09,1.02,-91.04,2.61,28.15,31.40
12137,0.34,-0.09,1.00,-86.17,12.63,30.12,31.31
12147,0.35,-0.09,1.00,-85.63,21.15,28.08,31.40
12157,0.37,-0.11,0.98,-87.86,27.11,22.76,31.31
12167,0.23,-0.13,1.07,-91.15,25.25,19.42,31.40
12177,0.16,-0.15,1.11,-88.92,20.93,18.56,31.31
12187,0.10,-0.15,1.13,-88.09,16.75,20.18,31.21
12197,0.10,-0.15,1.12,-85.24,9.59,23.53,31.31
12207,0.16,-0.15,1.07,-78.85,6.32,26.52,31.31
12217,0.26,-0.17,0.98,-73.42,9.08,30.81,31.26
12227,0.35,-0.18,0.93,-71.02,15.25,29.50,31.35
12237,0.34,-0.18,0.98,-74.44,20.82,20.49,31.26
12247,0.26,-0.16,1.01,-79.83,23.37,16.18,31.26
12257,0.18,-0.17,1.06,-82.44,26.00,16.43,31.35
12267,0.11,-0.19,1.10,-80.00,28.49,19.40,31.35
12277,0.08,-0.22,1.12,-78.05,29.13,22.81,31.45
12287,0.07,-0.25,1.11,-75.51,24.60,25.02,31.35
12297,0.07,-0.26,1.09,-74.47,17.97,25.50,31.26
12307,0.05,-0.26,1.10,-74.49,11.60,25.95,31.31
12317,0.03,-0.25,1.10,-79.08,6.56,25.73,31.26
12327,0.03,-0.25,1.09,-78.70,3.65,28.58,31.40
12337,0.11,-0.27,1.05,-77.59,3.44,34.31,31.31
12347,0.22,-0.29,1.02,-77.19,7.39,34.79,31.21
12357,0.28,-0.32,1.01,-80.26,11.56,29.27,31.31
12367,0.24,-0.31,1.06,-85.79,11.62,22.93,31.31
12377,0.19,-0.32,1.10,-91.33,9.66,20.67,31.40
12387,0.15,-0.35,1.15,-92.72,6.32,22.21,31.31
12397,0.15,-0.36,1.20,-91.11,3.69,23.80,31.31
12407,0.18,-0.38,1.17,-84.72,3.97,27.66,31.31
12417,0.23,-0.39,1.14,-77.19,12.24,28.95,31.26
12427,0.28,-0.40,1.13,-73.28,20.63,23.27,31.26
12437,0.27,-0.41,1.13,-74.14,25.53,14.32,31.35
12447,0.21,-0.40,1.13,-76.76,29.04,7.39,31.26
12457,0.15,-0.42,1.11,-76.66,33.02,6.15,31.26
12467,0.07,-0.47,1.13,-74.17,35.89,5.98,31.26
12477,0.02,-0.49,1.12,-68.44,35.28,5.79,31.31
12487,-0.04,-0.49,1.10,-66.53,31.48,7.07,31.26
12497,-0.05,-0.50,1.05,-62.85,29.18,13.42,31.35
12507,-0.02,-0.52,1.02,-61.65,28.17,19.47,31.31
12517,0.05,-0.57,0.99,-59.28,29.48,22.81,31.31
12527,0.08,-0.61,0.98,-59.22,27.51,19.76,31.21
12537,0.12,-0.60,0.95,-63.11,17.88,14.31,31.40
12547,0.15,-0.57,0.94,-68.64,9.05,8.82,31.21
12557,0.14,-0.58,0.96,-70.70,6.32,6.49,31.40
12567,0.13,-0.58,0.98,-69.31,11.40,11.27,31.21
12577,0.15,-0.58,0.97,-67.31,20.06,17.33,31.31
12587,0.16,-0.61,1.00,-65.44,25.94,21.22,31.26
12597,0.22,-0.66,1.01,-61.24,30.26,22.44,31.26
12607,0.23,-0.67,1.03,-59.47,30.49,18.35,31.35
12617,0.21,-0.68,1.06,-59.45,30.69,11.15,31.26
12627,0.11,-0.66,1.14,-62.00,19.15,3.28,31.35
12637,0.09,-0.69,1.19,-60.50,16.24,-0.84,31.35
12647,0.01,-0.67,1.24,-56.76,4.63,-0.02,31.31
12657,0.04,-0.68,1.22,-48.82,1.08,2.44,31.35
12667,0.04,-0.69,1.19,-38.64,-1.05,5.39,31.26
12677,0.07,-0.72,1.13,-30.50,4.12,7.01,31.31
12687,0.06,-0.71,1.10,-28.00,10.18,3.34,31.31
12697,0.04,-0.67,1.07,-30.85,12.49,-0.12,31.31
12707,-0.01,-0.61,1.06,-36.58,10.32,-1.59,31.31
12717,-0.05,-0.59,1.07,-42.14,10.93,-2.41,31.31
12727,-0.12,-0.59,1.13,-45.57,9.44,2.11,31.31
12737,-0.15,-0.64,1.18,-47.57,5.39,9.85,31.31
12747,-0.13,-0.69,1.28,-41.22,-4.43,16.58,31.31
12757,-0.06,-0.72,1.34,-32.85,-14.20,17.79,31.26
12767,0.01,-0.72,1.34,-26.15,-19.22,17.04,31.35
12777,0.06,-0.70,1.33,-22.96,-20.24,15.18,31.35
12787,0.12,-0.69,1.35,-17.89,-17.19,13.42,31.35
12797,0.17,-0.68,1.32,-15.02,-10.06,11.42,31.35
12807,0.23,-0.67,1.27,-13.28,-2.63,7.02,31.26
12817,0.23,-0.65,1.22,-13.74,2.09,1.19,31.31
12827,0.18,-0.64,1.21,-16.67,3.01,-6.09,31.35
12837,0.11,-0.64,1.22,-18.81,-1.51,-11.21,31.31
12847,0.04,-0.66,1.24,-17.18,-7.13,-13.34,31.31
12857,0.01,-0.70,1.25,-8.64,-9.04,-13.57,31.31
12867,-0.01,-0.71,1.24,3.66,-8.21,-11.51,31.31
12877,0.00,-0.70,1.18,15.27,-5.60,-6.85,31.31
12887,0.02,-0.66,1.09,20.09,-1.34,-5.36,31.31
12897,0.00,-0.61,1.03,19.85,-1.45,-4.95,31.31
12907,-0.01,-0.59,0.99,17.19,-2.75,-5.30,31.31
12917,-0.02,-0.58,0.95,13.05,-2.69,-6.43,31.31
12927,-0.05,-0.58,0.94,13.54,-6.76,-3.57,31.26
12937,-0.02,-0.59,0.93,15.42,-6.69,-2.02,31.26
12947,-0.01,-0.58,0.92,15.47,-5.34,0.70,31.35
12957,0.01,-0.58,0.91,16.70,-5.02,3.16,31.35
12967,0.06,-0.59,0.88,15.60,-1.24,4.09,31.35
12977,0.10,-0.57,0.87,14.55,3.34,3.33,31.26
12987,0.11,-0.58,0.84,12.89,6.43,2.05,31.31
12997,0.12,-0.58,0.80,11.88,10.43,0.66,31.35
13007,0.09,-0.58,0.81,10.64,12.06,-4.06,31.31
13017,0.03,-0.55,0.80,9.01,10.11,-6.46,31.31
13027,-0.01,-0.52,0.80,7.28,7.53,-5.80,31.31
13037,-0.03,-0.51,0.80,6.73,6.17,-2.63,31.31
13047,-0.04,-0.52,0.83,5.97,4.93,0.98,31.31
13057,-0.02,-0.53,0.84,4.95,2.67,3.86,31.31
13067,0.02,-0.55,0.84,4.56,-0.61,5.24,31.31
13077,0.08,-0.54,0.84,4.47,-0.85,6.02,31.31
13087,0.13,-0.55,0.84,2.85,2.52,4.81,31.31
13097,0.16,-0.55,0.86,0.98,6.40,2.60,31.35
13107,0.16,-0.54,0.88,-0.78,9.76,-0.56,31.35
13117,0.14,-0.57,0.91,-1.13,10.44,-4.40,31.26
13127,0.09,-0.58,0.93,0.29,9.71,-7.47,31.35
13137,0.05,-0.57,0.96,3.31,8.53,-8.20,31.35
13147,0.00,-0.56,0.96,6.15,6.92,-7.30,31.26
13157,-0.02,-0.52,0.94,7.91,3.01,-4.26,31.31
13167,-0.02,-0.49,0.93,8.23,-1.60,0.41,31.26
13177,0.01,-0.49,0.89,6.37,-3.57,3.74,31.31
13187,0.06,-0.50,0.87,2.55,-3.92,5.54,31.40
13197,0.10,-0.52,0.88,-0.95,-3.07,5.56,31.21
13207,0.12,-0.54,0.90,-3.36,-1.86,3.36,31.31
13217,0.11,-0.55,0.91,-4.20,-2.61,0.67,31.31
13227,0.12,-0.56,0.94,-2.72,-1.04,-1.33,31.31
13237,0.11,-0.56,0.94,0.09,-0.12,-2.92,31.31
13247,0.09,-0.55,0.93,1.83,1.88,-4.47,31.21
13257,0.08,-0.52,0.92,2.09,2.81,-4.52,31.21
13267,0.04,-0.49,0.92,0.24,3.98,-3.37,31.26
13277,0.02,-0.48,0.92,-2.11,4.06,-0.63,31.26
13287,0.01,-0.49,0.92,-4.56,3.28,1.08,31.35
13297,0.02,-0.50,0.92,-6.79,0.87,1.62,31.35
13307,0.02,-0.50,0.92,-8.66,-2.60,2.32,31.35
13317,0.06,-0.52,0.91,-9.48,-4.05,2.35,31.26
13327,0.09,-0.54,0.92,-9.47,-1.98,1.05,31.31
13337,0.09,-0.55,0.92,-7.98,1.91,0.21,31.26
13347,0.10,-0.57,0.93,-5.65,6.24,-0.78,31.31
13357,0.07,-0.57,0.96,-2.67,6.14,-2.20,31.21
13367,0.04,-0.56,0.96,-0.61,4.58,-3.30,31.31
13377,0.02,-0.54,0.97,0.87,1.76,-3.08,31.21
13387,0.01,-0.52,0.96,1.88,-0.95,-1.40,31.31
13397,0.02,-0.51,0.95,1.57,-3.18,0.14,31.31
13407,0.04,-0.51,0.94,1.18,-4.03,0.24,31.31
13417,0.06,-0.50,0.92,0.23,-3.18,-0.11,31.21
13427,0.07,-0.50,0.90,-0.67,-1.68,0.27,31.21
13437,0.08,-0.51,0.92,-1.95,1.48,0.34,31.31
13447,0.06,-0.52,0.95,-2.85,4.20,-0.64,31.26
13457,0.05,-0.52,0.96,-2.55,5.44,-0.96,31.26
13467,0.03,-0.52,0.96,-1.91,4.52,-0.24,31.26
13477,0.05,-0.54,0.97,-0.31,2.70,0.05,31.26
13487,0.07,-0.53,0.97,1.28,2.17,-0.82,31.35
13497,0.06,-0.51,0.95,1.44,3.04,-0.90,31.26
13507,0.07,-0.50,0.93,0.61,5.30,0.00,31.26
13517,0.08,-0.51,0.91,-0.78,5.89,1.98,31.26
13527,0.10,-0.55,0.94,-0.81,6.34,1.24,31.26
13537,0.10,-0.57,0.96,0.58,6.64,-2.34,31.21
13547,0.06,-0.54,0.94,2.55,6.23,-3.74,31.31
13557,0.05,-0.49,0.91,3.30,6.47,-2.31,31.31
13567,0.04,-0.50,0.90,2.41,3.18,0.06,31.31
13577,0.06,-0.51,0.90,0.29,2.14,0.17,31.21
13587,0.05,-0.51,0.93,-1.21,1.54,-0.67,31.31
13597,0.06,-0.52,0.94,-1.48,1.88,0.02,31.31
13607,0.07,-0.51,0.93,-1.82,3.79,0.90,31.21
13617,0.07,-0.53,0.93,-2.64,4.09,1.08,31.31
13627,0.09,-0.54,0.95,-3.73,3.45,0.55,31.26
13637,0.06,-0.52,0.96,-4.18,0.03,-2.12,31.26
13647,0.05,-0.52,0.97,-3.60,-0.27,-2.09,31.26
13657,0.06,-0.53,0.97,-1.98,-1.40,-1.91,31.26
13667,0.07,-0.53,0.95,-0.21,0.17,-0.32,31.26
13677,0.09,-0.53,0.98,1.30,-0.84,0.89,31.35
13687,0.09,-0.53,0.96,2.37,0.61,-0.52,31.35
13697,0.09,-0.52,0.97,2.12,1.69,-2.23,31.26
13707,0.08,-0.52,0.95,2.63,2.90,-2.72,31.31
13717,0.05,-0.53,0.96,3.51,3.18,-2.84,31.21
13727,0.04,-0.53,0.95,4.40,1.97,-2.52,31.31
13737,0.03,-0.50,0.96,4.72,0.23,-2.56,31.21
13747,0.03,-0.51,0.94,5.51,-2.15,-1.77,31.21
13757,0.05,-0.51,0.93,4.95,-2.32,-1.45,31.31
13767,0.06,-0.51,0.92,4.24,-1.18,-2.14,31.31
13777,0.07,-0.51,0.91,3.98,0.31,-2.84,31.31
13787,0.04,-0.49,0.89,3.53,0.09,-1.28,31.21
13797,0.05,-0.48,0.90,2.66,1.74,0.12,31.35
13807,0.04,-0.48,0.90,-0.03,4.03,1.08,31.26
13817,0.04,-0.48,0.91,-2.06,3.91,1.63,31.26
13827,0.03,-0.50,0.92,-3.85,3.18,2.00,31.26
13837,0.04,-0.51,0.94,-3.31,1.04,2.24,31.26
13847,0.05,-0.52,0.93,-2.98,-0.69,2.20,31.26
13857,0.06,-0.51,0.92,-2.56,-1.31,2.43,31.26
13867,0.08,-0.52,0.92,-1.69,-1.19,2.53,31.26
13877,0.10,-0.51,0.93,-0.95,0.37,1.63,31.31
13887,0.09,-0.50,0.93,-0.96,1.79,0.14,31.31
13897,0.10,-0.50,0.93,-1.05,3.45,-1.01,31.31
13907,0.08,-0.50,0.93,-1.45,3.88,-1.44,31.31
13917,0.07,-0.49,0.94,-1.37,4.20,-1.45,31.21
13927,0.06,-0.50,0.94,-1.21,4.56,-1.34,31.31
13937,0.05,-0.50,0.95,-0.58,4.21,-0.99,31.21
13947,0.06,-0.50,0.95,-0.05,2.56,0.41,31.31
13957,0.07,-0.49,0.94,-1.04,2.66,0.23,31.31
13967,0.07,-0.50,0.96,-1.92,2.98,-0.72,31.26
13977,0.07,-0.50,0.95,-1.92,3.47,-1.22,31.35
13987,0.07,-0.51,0.98,-0.67,4.60,-1.65,31.35
13997,0.06,-0.51,0.99,0.29,5.11,-1.31,31.26
14007,0.06,-0.50,0.98,0.89,4.46,-1.22,31.26
14017,0.07,-0.50,0.98,1.37,3.21,-1.60,31.26
14027,0.07,-0.51,0.99,2.14,2.02,-2.31,31.26
14037,0.06,-0.50,0.98,2.17,1.77,-2.73,31.35
14047,0.06,-0.50,0.99,2.29,1.42,-2.58,31.21
14057,0.06,-0.50,1.00,3.21,1.16,-2.47,31.31
14067,0.07,-0.50,0.99,4.11,1.27,-2.41,31.31
14077,0.07,-0.50,1.00,4.81,1.59,-3.15,31.21
14087,0.06,-0.49,1.00,4.56,1.13,-2.72,31.31
14097,0.06,-0.49,1.00,5.40,1.25,-2.32,31.31
14107,0.07,-0.49,0.99,5.44,3.19,-2.87,31.31
14117,0.06,-0.49,0.98,5.27,4.95,-0.67,31.21
14127,0.05,-0.47,0.98,3.68,7.27,0.05,31.31
14137,0.04,-0.48,0.98,-1.37,4.47,1.07,31.26
14147,-0.04,-0.45,1.00,-4.67,1.11,0.41,31.35
14157,-0.00,-0.45,0.98,-3.73,3.16,-0.87,31.35
14167,-0.01,-0.44,0.97,-2.99,4.31,0.52,31.35
14177,0.00,-0.43,0.96,-3.88,8.44,2.23,31.26
