Millis,Acce_X,Acce_Y,Acce_Z,Gyro_X,Gyro_Y,Gyro_Z,Temp
81377,0.10,-0.42,1.01,-21.95,-4.98,-6.56,30.08
81387,0.05,-0.47,1.10,-18.89,-2.41,-7.71,30.18
81397,0.00,-0.51,1.16,-11.65,-3.31,-7.50,30.08
81407,-0.02,-0.51,1.18,-0.18,-5.08,-6.55,30.13
81417,-0.00,-0.48,1.12,8.99,-5.48,-6.69,30.13
81427,0.04,-0.44,1.05,11.08,-4.81,-8.43,30.22
81437,0.04,-0.42,1.01,7.53,-3.33,-10.87,30.22
81447,0.03,-0.43,1.00,2.23,-1.47,-13.50,30.18
81457,0.01,-0.45,1.00,-3.31,-0.20,-16.31,30.13
81467,-0.00,-0.49,0.98,-6.93,-0.99,-18.79,30.18
81477,-0.04,-0.48,0.91,-9.65,-1.24,-20.64,30.18
81487,-0.05,-0.47,0.84,-12.96,-0.09,-22.37,29.99
81497,-0.08,-0.47,0.80,-16.92,3.07,-20.46,30.18
81507,-0.12,-0.47,0.80,-21.33,13.85,-15.85,30.27
81517,-0.16,-0.52,0.84,-22.76,23.83,-10.05,30.18
81527,-0.20,-0.59,0.95,-19.92,29.01,-6.09,30.13
81537,-0.22,-0.58,0.99,-14.70,19.82,-4.43,30.22
81547,-0.18,-0.55,0.92,-9.16,4.73,-7.31,30.13
81557,-0.13,-0.53,0.82,-9.34,-14.89,-12.76,30.13
81567,-0.05,-0.50,0.71,-17.51,-26.55,-19.48,30.13
81577,0.01,-0.51,0.67,-30.73,-30.98,-26.14,30.27
81587,0.03,-0.53,0.72,-45.34,-20.32,-30.73,30.18
81597,-0.02,-0.60,0.83,-54.50,-11.56,-28.18,30.18
81607,-0.10,-0.65,0.94,-54.53,2.05,-18.27,30.27
81617,-0.13,-0.69,1.07,-40.95,13.04,-7.98,30.18
81627,-0.15,-0.72,1.12,-22.46,8.76,-0.78,30.18
81637,-0.13,-0.71,1.09,-6.78,-13.36,2.64,30.18
81647,-0.03,-0.65,0.93,1.04,-30.31,5.05,30.13
81657,0.10,-0.58,0.81,-0.37,-47.71,2.26,30.22
81667,0.21,-0.60,0.75,-12.14,-42.84,-0.66,30.22
81677,0.26,-0.69,0.81,-26.96,-19.24,-1.15,30.22
81687,0.21,-0.76,0.97,-34.99,10.21,1.05,30.22
81697,0.15,-0.83,1.13,-31.51,37.89,2.27,30.22
81707,0.05,-0.83,1.25,-21.91,43.13,-0.95,30.27
81717,-0.02,-0.76,1.32,-9.16,30.02,-5.15,30.18
81727,-0.05,-0.69,1.30,2.63,5.33,-9.04,30.18
81737,-0.04,-0.60,1.21,7.04,-13.60,-12.02,30.18
81747,0.01,-0.51,1.14,3.69,-17.53,-13.97,30.18
81757,0.04,-0.50,1.10,-6.69,-5.22,-15.63,30.18
81767,-0.00,-0.54,1.17,-16.38,12.06,-14.95,30.13
81777,-0.07,-0.57,1.27,-15.19,18.17,-12.89,30.13
81787,-0.08,-0.59,1.30,-4.87,14.50,-11.27,30.22
81797,-0.07,-0.57,1.23,5.74,0.26,-10.72,30.13
81807,-0.01,-0.52,1.13,10.31,-16.08,-11.19,30.13
81817,0.07,-0.49,1.02,6.47,-30.89,-14.31,30.22
81827,0.16,-0.44,0.89,-4.47,-42.00,-17.11,30.18
81837,0.25,-0.41,0.81,-16.92,-46.67,-22.15,30.18
81847,0.31,-0.42,0.75,-28.58,-42.70,-28.05,30.18
81857,0.33,-0.43,0.74,-33.31,-25.88,-31.19,30.18
81867,0.34,-0.47,0.79,-25.48,-0.47,-30.02,30.08
81877,0.31,-0.51,0.87,-8.78,26.06,-25.65,30.18
81887,0.24,-0.50,0.93,5.82,41.19,-20.78,30.13
81897,0.21,-0.43,0.94,16.09,46.12,-15.22,30.22
81907,0.17,-0.37,0.96,18.27,46.09,-11.80,30.13
81917,0.12,-0.35,1.01,15.25,44.82,-8.85,30.22
81927,0.06,-0.34,1.06,14.41,41.16,-3.56,30.27
81937,0.03,-0.34,1.06,15.56,37.77,1.39,30.32
81947,0.01,-0.35,1.06,17.51,29.24,6.60,30.27
81957,0.01,-0.35,1.04,18.66,17.22,10.02,30.27
81967,0.02,-0.36,1.03,17.07,-0.52,8.61,30.08
81977,0.05,-0.35,0.99,13.85,-19.08,4.27,30.18
81987,0.09,-0.32,0.92,9.24,-36.32,-0.20,30.08
81997,0.14,-0.27,0.85,6.20,-43.24,-4.14,30.18
82007,0.16,-0.24,0.82,1.68,-43.10,-7.22,30.13
82017,0.16,-0.22,0.79,-1.02,-37.73,-9.28,30.13
82027,0.15,-0.20,0.77,0.63,-26.98,-6.14,30.13
82037,0.16,-0.19,0.75,2.63,-15.54,2.35,30.22
82047,0.18,-0.18,0.78,2.21,-4.61,10.12,30.13
82057,0.18,-0.18,0.82,-1.36,3.77,15.63,30.18
82067,0.19,-0.19,0.84,-3.94,9.02,18.73,30.18
82077,0.20,-0.19,0.87,-6.41,11.69,18.06,30.18
82087,0.20,-0.20,0.89,-8.18,12.26,15.66,30.18
82097,0.18,-0.21,0.93,-10.78,7.80,12.90,30.27
82107,0.17,-0.21,0.96,-13.50,1.05,11.30,30.18
82117,0.18,-0.23,0.98,-17.54,-5.33,10.47,30.22
82127,0.22,-0.25,0.98,-21.42,-9.25,7.65,30.22
82137,0.24,-0.29,1.01,-23.44,-9.68,4.37,30.22
82147,0.24,-0.27,1.01,-27.11,-9.69,1.85,30.22
82157,0.22,-0.27,1.02,-30.98,-10.05,1.48,30.13
82167,0.18,-0.28,1.07,-31.47,-10.21,2.55,30.13
82177,0.16,-0.28,1.10,-28.52,-12.00,5.62,30.18
82187,0.17,-0.30,1.08,-24.02,-13.15,7.91,30.18
82197,0.24,-0.31,1.01,-18.93,-6.98,9.86,30.18
82207,0.27,-0.32,1.02,-17.89,1.19,6.99,30.27
82217,0.26,-0.30,1.05,-17.40,6.38,6.67,30.18
82227,0.27,-0.25,1.05,-17.66,19.13,7.44,30.08
82237,0.24,-0.23,1.08,-16.50,28.27,7.50,30.13
82247,0.25,-0.19,1.07,-15.63,48.41,8.44,30.13
82257,0.16,-0.17,1.16,-16.53,54.63,12.73,30.22
82267,0.12,-0.28,1.31,-18.02,45.86,11.60,30.13
82277,0.07,-0.30,1.42,-16.58,25.73,4.69,30.18
82287,0.02,-0.28,1.44,-10.50,0.00,0.98,30.22
82297,0.05,-0.23,1.37,-3.88,-25.10,0.55,30.08
82307,0.13,-0.18,1.18,6.41,-36.21,0.55,30.18
82317,0.17,-0.11,1.07,9.42,-44.84,0.31,30.27
82327,0.25,-0.13,1.01,15.47,-46.12,-1.11,30.18
82337,0.32,-0.16,0.94,20.46,-42.03,-3.37,30.08
82347,0.36,-0.16,0.93,20.32,-38.98,-8.60,30.08
82357,0.37,-0.17,0.96,21.10,-44.38,-18.26,30.13
82367,0.37,-0.20,0.93,25.08,-49.48,-28.98,30.13
82377,0.34,-0.20,0.93,30.32,-44.52,-33.66,30.22
82387,0.31,-0.16,0.92,34.64,-34.47,-35.69,30.13
82397,0.27,-0.11,0.89,40.37,-15.74,-34.61,30.22
82407,0.25,-0.07,0.83,43.33,12.05,-27.85,30.18
82417,0.19,-0.03,0.82,41.37,35.94,-16.23,30.18
82427,0.16,-0.03,0.85,36.67,49.76,-5.28,30.18
82437,0.16,-0.04,0.86,28.89,52.99,0.84,30.18
82447,0.18,-0.08,0.91,19.22,47.59,-1.56,30.18
82457,0.15,-0.12,0.99,13.13,34.37,-8.95,30.18
82467,0.09,-0.14,1.06,6.17,17.79,-15.74,30.18
82477,0.05,-0.11,1.05,3.83,-1.54,-17.28,30.13
82487,0.03,-0.12,1.04,2.37,-16.89,-15.92,30.13
82497,0.04,-0.12,0.97,4.64,-20.32,-14.90,30.22
82507,0.03,-0.13,0.91,9.25,-14.53,-10.84,30.13
82517,0.02,-0.12,0.90,14.53,-6.56,-4.14,30.13
82527,0.04,-0.09,0.84,15.48,1.54,0.90,30.22
82537,0.03,-0.06,0.83,11.37,7.56,5.16,30.18
82547,-0.00,-0.06,0.83,7.50,6.72,9.89,30.18
82557,-0.00,-0.05,0.82,-1.42,0.60,12.98,30.18
82567,0.01,-0.05,0.83,-8.52,-0.26,15.50,30.18
82577,-0.01,-0.08,0.92,-12.95,-0.66,17.80,30.18
82587,-0.05,-0.10,0.97,-14.92,0.40,21.31,30.08
82597,-0.09,-0.10,1.02,-12.00,2.15,26.52,30.22
82607,-0.13,-0.11,1.05,-7.44,2.47,32.55,30.13
82617,-0.16,-0.10,1.02,-2.56,-0.61,37.57,30.13
82627,-0.15,-0.07,1.00,-0.41,-13.10,39.28,30.22
82637,-0.12,-0.03,0.93,-1.69,-28.53,38.61,30.13
82647,-0.08,-0.02,0.90,-11.05,-54.49,39.30,30.22
82657,0.07,-0.05,0.86,-22.08,-73.88,40.99,30.18
82667,0.21,-0.15,0.85,-30.05,-82.76,37.71,30.18
82677,0.31,-0.20,0.93,-32.69,-82.63,36.46,30.18
82687,0.41,-0.27,1.00,-34.99,-80.89,32.53,30.18
82697,0.51,-0.33,1.04,-25.54,-66.63,29.86,30.08
82707,0.61,-0.41,1.06,-14.08,-43.91,21.97,30.13
82717,0.57,-0.41,1.18,-5.39,-32.61,9.92,30.22
82727,0.54,-0.37,1.23,3.69,-26.95,-1.79,30.13
82737,0.48,-0.31,1.23,12.60,-21.66,-11.59,30.13
82747,0.40,-0.23,1.24,15.42,-32.37,-19.47,30.13
82757,0.34,-0.17,1.17,13.25,-45.51,-27.48,30.18
82767,0.29,-0.13,1.11,11.02,-60.15,-34.35,30.18
82777,0.24,-0.08,1.08,8.23,-64.89,-36.49,30.18
82787,0.25,-0.06,1.07,9.10,-57.18,-35.11,30.18
82797,0.30,-0.07,1.07,16.27,-38.41,-30.18,30.27
82807,0.35,-0.06,1.09,22.41,-11.27,-22.38,30.18
82817,0.38,-0.03,1.09,27.45,17.68,-14.02,30.08
82827,0.34,-0.02,1.12,28.90,43.33,-5.40,30.04
82837,0.22,-0.03,1.14,27.39,64.70,4.17,30.13
82847,0.12,-0.04,1.24,23.04,73.24,13.47,30.13
82857,0.05,-0.07,1.30,15.27,67.76,18.87,30.13
82867,-0.02,-0.11,1.39,6.24,43.04,19.22,30.13
82877,-0.01,-0.16,1.47,6.63,10.34,16.69,30.13
82887,0.04,-0.24,1.46,11.57,-27.54,10.18,30.18
82897,0.13,-0.31,1.38,18.90,-57.47,4.99,30.18
82907,0.23,-0.30,1.25,24.12,-70.76,0.92,30.18
82917,0.31,-0.28,1.14,25.77,-67.83,1.24,30.18
82927,0.40,-0.25,1.01,22.50,-49.44,2.17,30.18
82937,0.41,-0.23,0.98,17.98,-24.46,4.70,30.18
82947,0.41,-0.22,0.99,16.29,-1.56,10.32,30.13
82957,0.38,-0.23,1.02,16.43,15.51,14.20,30.13
82967,0.34,-0.24,1.07,15.57,23.63,17.31,30.22
82977,0.29,-0.23,1.10,14.46,20.87,18.21,30.13
82987,0.24,-0.22,1.14,12.64,13.95,18.02,30.22
82997,0.19,-0.24,1.17,12.58,4.46,17.83,30.04
83007,0.18,-0.24,1.18,13.48,-7.42,17.71,30.18
83017,0.18,-0.24,1.15,13.74,-19.02,17.59,30.08
83027,0.21,-0.23,1.09,12.15,-28.14,15.30,30.18
83037,0.23,-0.21,1.06,10.35,-34.55,13.97,30.18
83047,0.25,-0.19,1.00,8.15,-33.28,15.68,30.18
83057,0.28,-0.18,0.97,7.04,-25.22,19.22,30.18
83067,0.30,-0.18,0.96,6.90,-12.09,23.22,30.13
83077,0.29,-0.19,0.96,6.90,-2.46,25.89,30.13
83087,0.27,-0.18,0.98,6.05,0.99,26.14,30.13
83097,0.26,-0.18,0.97,4.99,-4.90,23.79,30.13
83107,0.27,-0.14,0.93,-0.14,-14.55,20.50,30.08
83117,0.29,-0.10,0.90,-7.76,-22.32,18.09,30.13
83127,0.31,-0.09,0.89,-15.80,-24.24,19.11,30.18
83137,0.35,-0.10,0.90,-21.47,-15.89,22.55,30.18
83147,0.39,-0.12,0.92,-26.81,-1.68,26.70,30.27
83157,0.34,-0.13,1.03,-29.68,8.79,29.89,30.08
83167,0.37,-0.18,1.06,-26.00,27.24,32.46,30.18
83177,0.34,-0.22,1.15,-19.60,31.16,31.05,30.18
83187,0.31,-0.24,1.17,-15.91,27.73,25.79,30.13
83197,0.28,-0.22,1.18,-11.19,19.45,22.02,30.22
83207,0.27,-0.19,1.16,-9.69,11.42,18.73,30.13
83217,0.27,-0.19,1.18,-9.45,6.43,17.36,30.13
83227,0.28,-0.18,1.18,-7.74,3.79,16.67,30.13
83237,0.29,-0.19,1.17,-4.95,2.72,16.75,30.18
83247,0.31,-0.19,1.14,-0.21,2.98,16.70,30.08
83257,0.34,-0.19,1.12,5.11,7.01,17.01,30.08
83267,0.34,-0.20,1.12,8.58,11.97,16.38,30.27
83277,0.34,-0.22,1.12,10.14,16.24,14.32,30.18
83287,0.31,-0.22,1.14,11.69,19.65,10.81,30.27
83297,0.27,-0.20,1.14,13.25,21.79,8.46,30.08
83307,0.23,-0.20,1.14,15.34,20.43,7.07,30.13
83317,0.20,-0.17,1.14,16.24,15.62,4.82,30.22
83327,0.19,-0.15,1.09,15.63,11.69,1.98,30.13
83337,0.18,-0.12,1.06,13.57,9.80,0.31,30.22
83347,0.17,-0.08,1.03,10.11,12.64,1.28,30.13
83357,0.16,-0.05,1.03,5.82,24.03,5.36,30.22
83367,0.11,-0.04,1.10,0.58,35.31,10.46,30.08
83377,0.05,-0.04,1.19,-5.13,39.27,14.82,30.18
83387,-0.01,-0.07,1.32,-12.92,23.89,14.67,30.08
83397,-0.02,-0.15,1.44,-11.33,1.51,10.82,30.08
83407,0.00,-0.20,1.50,-5.79,-31.24,2.96,30.18
83417,0.08,-0.23,1.44,1.16,-65.04,-7.59,30.08
83427,0.19,-0.20,1.31,5.73,-92.69,-17.33,30.22
83437,0.32,-0.13,1.12,6.85,-101.04,-23.94,30.13
83447,0.44,-0.06,0.97,5.54,-89.69,-24.99,30.13
83457,0.51,-0.01,0.89,1.69,-67.34,-23.05,30.13
83467,0.56,0.02,0.84,-1.77,-39.53,-19.31,30.13
83477,0.57,0.02,0.82,-4.76,-15.22,-16.60,30.22
83487,0.55,0.00,0.87,-6.49,-0.63,-16.90,30.08
83497,0.51,-0.01,0.93,-4.96,3.86,-20.58,30.18
83507,0.49,-0.01,0.93,-1.86,0.15,-26.53,30.18
83517,0.46,-0.01,0.90,0.78,-5.63,-31.68,30.18
83527,0.45,0.00,0.88,-0.40,-8.69,-35.71,30.18
83537,0.44,0.03,0.84,-4.63,-7.56,-38.44,30.08
83547,0.42,0.05,0.84,-8.67,-1.45,-39.18,30.04
83557,0.39,0.03,0.89,-11.31,3.21,-37.73,30.13
83567,0.36,0.01,0.92,-12.37,7.31,-35.04,30.22
83577,0.35,-0.00,0.94,-12.43,9.40,-33.60,30.13
83587,0.33,-0.02,0.94,-11.98,10.92,-32.17,30.18
83597,0.31,-0.03,0.96,-10.50,10.12,-31.60,30.13
83607,0.32,-0.04,0.95,-6.72,13.74,-31.10,30.18
83617,0.32,-0.06,0.93,-4.72,14.75,-33.18,30.18
83627,0.33,-0.08,0.92,-5.57,16.02,-37.59,30.08
83637,0.32,-0.10,0.95,-8.53,16.14,-42.18,30.08
83647,0.32,-0.11,0.92,-10.05,19.18,-45.13,30.27
83657,0.29,-0.11,0.94,-9.60,21.01,-47.07,30.13
83667,0.26,-0.11,0.95,-7.36,21.30,-47.13,30.22
83677,0.22,-0.10,0.95,-6.00,18.49,-47.22,30.13
83687,0.20,-0.10,0.95,-4.35,10.56,-49.04,30.13
83697,0.17,-0.12,0.99,-2.17,2.64,-52.46,30.13
83707,0.13,-0.12,1.03,0.26,-10.47,-55.76,30.13
83717,0.12,-0.14,1.02,2.24,-21.44,-55.85,30.08
83727,0.12,-0.14,1.01,0.17,-27.77,-51.66,30.08
83737,0.16,-0.12,1.00,-3.60,-27.28,-49.24,30.18
83747,0.17,-0.12,1.01,-6.31,-25.89,-48.40,30.18
83757,0.19,-0.11,1.01,-8.75,-22.53,-45.34,30.08
83767,0.21,-0.09,0.98,-11.19,-21.27,-41.73,30.18
83777,0.22,-0.08,1.00,-12.20,-21.51,-37.45,30.22
83787,0.24,-0.09,0.97,-10.20,-19.57,-31.36,30.13
83797,0.29,-0.08,0.95,-10.70,-16.14,-24.87,30.13
83807,0.33,-0.09,0.91,-10.21,-11.02,-19.65,30.18
83817,0.38,-0.10,0.90,-9.57,-3.54,-15.37,30.13
83827,0.41,-0.12,0.90,-9.69,-0.75,-11.92,30.13
83837,0.43,-0.12,0.88,-11.34,-1.34,-10.73,30.18
83847,0.45,-0.12,0.86,-13.77,-5.02,-10.96,30.08
83857,0.46,-0.13,0.87,-18.29,-10.17,-12.73,30.18
83867,0.49,-0.12,0.84,-21.86,-10.02,-14.72,30.18
83877,0.51,-0.10,0.81,-24.38,-4.18,-15.79,30.08
83887,0.50,-0.10,0.80,-24.55,9.07,-13.57,30.22
83897,0.47,-0.11,0.83,-21.95,26.76,-8.73,30.13
83907,0.44,-0.11,0.86,-15.91,45.88,-3.73,30.13
83917,0.39,-0.11,0.93,-10.76,52.20,0.08,30.13
83927,0.34,-0.13,0.99,-9.45,41.62,0.89,30.13
83937,0.33,-0.14,1.02,-13.42,12.72,-2.34,30.08
83947,0.38,-0.14,0.96,-21.16,-13.25,-9.48,30.18
83957,0.42,-0.16,0.91,-29.83,-37.28,-16.69,30.18
83967,0.48,-0.16,0.85,-33.47,-44.44,-19.63,30.08
83977,0.53,-0.17,0.79,-31.92,-30.12,-14.79,30.18
83987,0.56,-0.17,0.77,-26.06,1.21,-7.02,30.18
83997,0.56,-0.19,0.79,-18.26,32.93,0.75,30.18
84007,0.54,-0.21,0.82,-11.71,57.86,7.22,30.13
84017,0.46,-0.19,0.90,-9.94,64.87,9.11,30.13
84027,0.40,-0.20,0.95,-12.35,55.01,7.66,30.13
84037,0.36,-0.20,1.03,-15.74,31.04,2.98,30.13
84047,0.33,-0.21,1.02,-22.02,6.61,-4.35,30.13
84057,0.31,-0.21,1.06,-27.40,-22.49,-10.67,30.22
84067,0.33,-0.22,1.04,-33.53,-49.22,-17.47,30.18
84077,0.38,-0.25,1.02,-38.03,-71.73,-24.17,30.18
84087,0.49,-0.29,0.91,-36.53,-75.13,-26.49,30.18
84097,0.58,-0.30,0.83,-30.69,-54.18,-24.82,30.18
84107,0.64,-0.31,0.79,-21.28,-20.31,-19.39,30.08
84117,0.63,-0.29,0.81,-11.89,15.05,-13.59,30.08
84127,0.57,-0.26,0.83,-6.37,40.67,-10.00,30.13
84137,0.48,-0.23,0.87,-7.68,46.17,-9.71,30.13
84147,0.40,-0.21,0.95,-11.63,35.50,-10.37,30.13
84157,0.36,-0.19,0.95,-16.99,20.05,-9.85,30.08
84167,0.33,-0.19,0.97,-21.91,4.03,-8.66,30.13
84177,0.35,-0.22,0.96,-25.54,-4.64,-6.52,30.18
84187,0.43,-0.24,0.92,-27.18,-1.79,-4.18,30.08
84197,0.48,-0.27,0.88,-26.38,15.37,-1.80,30.08
84207,0.50,-0.29,0.89,-20.52,42.27,1.97,30.18
84217,0.45,-0.28,0.94,-13.48,68.18,5.62,30.08
84227,0.38,-0.31,1.02,-7.18,79.59,7.69,30.08
84237,0.32,-0.32,1.10,-5.91,71.60,5.19,30.13
84247,0.28,-0.31,1.14,-9.42,49.53,1.51,30.13
84257,0.25,-0.29,1.13,-14.90,20.17,-2.35,30.13
84267,0.28,-0.29,1.07,-19.18,2.32,-3.77,30.13
84277,0.32,-0.30,1.02,-22.09,-6.90,-4.66,30.13
84287,0.34,-0.29,0.95,-23.21,0.15,-2.60,30.08
84297,0.35,-0.28,0.91,-21.34,18.84,3.07,30.08
84307,0.32,-0.29,0.95,-15.66,44.98,8.99,30.08
84317,0.28,-0.28,1.02,-8.81,64.82,12.15,30.18
84327,0.21,-0.29,1.09,-6.05,66.41,12.85,30.18
84337,0.17,-0.29,1.11,-8.09,45.36,9.68,30.08
84347,0.17,-0.29,1.08,-13.31,13.88,3.53,30.08
84357,0.20,-0.29,1.02,-20.31,-14.15,-0.93,30.13
84367,0.27,-0.28,0.93,-27.10,-20.84,-0.24,30.22
84377,0.36,-0.32,0.88,-29.37,-7.73,4.40,30.13
84387,0.39,-0.35,0.89,-26.69,18.35,10.49,30.04
84397,0.39,-0.38,0.92,-20.90,49.36,16.20,30.13
84407,0.38,-0.41,0.98,-13.94,80.63,19.01,30.08
84417,0.32,-0.42,1.05,-7.19,97.15,16.63,30.08
84427,0.22,-0.39,1.10,-2.98,100.12,11.44,30.18
84437,0.14,-0.35,1.13,-3.21,87.42,4.76,30.08
84447,0.12,-0.35,1.11,-5.28,78.34,-0.78,30.08
84457,0.10,-0.38,1.12,-10.44,59.69,-5.89,30.08
84467,0.10,-0.39,1.05,-14.52,44.58,-8.82,30.13
84477,0.14,-0.39,1.00,-13.60,46.93,-5.95,30.04
84487,0.17,-0.37,0.92,-8.24,66.37,3.94,30.13
84497,0.16,-0.36,0.88,-1.97,98.81,20.27,30.13
84507,0.12,-0.33,0.90,5.02,134.69,36.20,30.08
84517,0.05,-0.31,0.95,7.47,157.04,46.99,30.04
84527,-0.06,-0.31,1.04,6.43,153.65,51.62,30.08
84537,-0.14,-0.32,1.14,4.56,129.80,50.06,30.18
84547,-0.24,-0.30,1.18,5.71,78.47,45.79,30.08
84557,-0.25,-0.29,1.16,6.60,24.15,39.11,30.18
84567,-0.26,-0.29,1.13,6.72,-24.17,35.56,30.18
84577,-0.17,-0.31,1.05,0.14,-55.47,32.98,30.08
84587,-0.06,-0.30,0.97,-8.05,-68.17,32.40,30.04
84597,0.04,-0.34,0.89,-12.66,-67.18,35.63,30.13
84607,0.13,-0.37,0.88,-19.05,-51.34,36.73,30.13
84617,0.19,-0.38,0.87,-20.87,-31.01,38.12,30.13
84627,0.26,-0.38,0.85,-15.71,-6.82,37.79,30.22
84637,0.26,-0.39,0.88,-8.35,15.25,34.64,30.08
84647,0.23,-0.41,0.91,-4.55,30.47,29.88,30.18
84657,0.18,-0.39,0.94,-5.97,38.82,24.06,30.18
84667,0.10,-0.37,0.97,-10.75,39.19,19.04,30.08
84677,0.01,-0.36,1.01,-16.56,33.92,15.53,30.08
84687,-0.04,-0.36,1.02,-23.40,25.91,15.36,30.18
84697,-0.07,-0.38,1.02,-29.97,17.89,19.54,30.08
84707,-0.08,-0.40,1.06,-34.26,11.63,26.05,30.13
84717,-0.04,-0.44,1.08,-35.48,10.55,31.42,30.04
84727,-0.02,-0.48,1.11,-32.76,13.04,34.93,30.04
84737,0.02,-0.52,1.13,-26.66,15.54,36.02,30.13
84747,0.02,-0.54,1.14,-20.03,14.64,35.15,30.13
84757,0.02,-0.54,1.12,-16.09,7.73,32.58,30.18
84767,0.04,-0.53,1.07,-14.53,0.02,27.15,30.08
84777,0.05,-0.50,1.03,-15.15,-7.69,21.25,30.08
84787,0.04,-0.47,0.98,-15.56,-11.74,16.93,30.18
84797,0.03,-0.46,0.97,-16.00,-14.20,13.27,30.08
84807,0.01,-0.45,0.98,-16.75,-14.27,11.13,30.08
84817,-0.01,-0.42,0.98,-16.26,-15.88,11.47,30.08
84827,-0.00,-0.41,0.98,-12.27,-16.40,12.08,30.13
84837,0.03,-0.42,0.94,-8.40,-13.15,10.56,30.13
84847,0.03,-0.42,0.93,-7.16,-11.37,8.69,30.13
84857,0.02,-0.42,0.91,-6.02,-7.53,7.86,30.04
84867,-0.01,-0.42,0.92,-7.11,-1.97,7.27,30.04
84877,-0.02,-0.42,0.93,-8.55,3.53,7.11,30.13
84887,-0.04,-0.39,0.98,-9.97,3.16,7.10,30.18
84897,-0.04,-0.38,0.99,-9.47,-0.92,5.51,30.08
84907,-0.06,-0.38,0.98,-9.34,-5.13,4.60,30.08
84917,-0.06,-0.37,0.98,-7.22,-6.79,6.63,30.08
84927,-0.06,-0.37,0.96,-4.20,-2.12,11.10,30.18
84937,-0.04,-0.39,0.98,-3.51,2.95,13.28,30.08
84947,-0.05,-0.42,1.01,-5.08,5.73,13.82,30.13
84957,-0.05,-0.42,1.05,-7.89,-0.29,12.63,30.13
84967,-0.05,-0.43,1.06,-7.74,-10.96,10.60,30.22
84977,-0.02,-0.41,1.04,-6.64,-19.54,8.63,30.13
84987,0.01,-0.41,0.98,-2.47,-18.92,11.08,30.18
84997,0.05,-0.42,0.96,0.47,-10.26,13.83,30.13
85007,0.06,-0.40,0.97,3.07,-0.41,13.73,30.18
85017,0.06,-0.41,0.99,4.78,5.15,12.08,30.18
85027,0.05,-0.41,1.01,4.23,2.61,8.03,30.18
85037,0.02,-0.39,1.00,0.90,-4.76,3.25,30.18
85047,0.01,-0.39,1.00,-2.82,-10.89,0.44,30.18
85057,-0.01,-0.36,0.96,-7.04,-15.30,1.42,30.18
85067,0.00,-0.35,0.93,-11.08,-15.08,4.55,30.13
85077,0.04,-0.36,0.95,-13.95,-4.76,6.95,30.22
85087,0.05,-0.38,0.99,-16.58,-0.46,7.47,30.13
85097,0.03,-0.39,1.03,-16.55,0.21,5.50,30.04
85107,0.01,-0.42,1.05,-13.15,-3.76,2.96,30.13
85117,0.02,-0.42,1.07,-7.63,-3.05,1.66,30.18
85127,0.02,-0.44,1.07,-1.88,0.82,2.47,30.08
85137,0.03,-0.42,1.06,2.85,2.20,2.64,30.18
85147,0.04,-0.41,1.02,4.08,1.36,1.94,30.18
85157,0.04,-0.39,0.98,0.79,-2.76,-0.63,30.08
85167,0.03,-0.35,0.96,-5.21,-4.67,-1.86,30.18
85177,0.02,-0.36,0.98,-9.63,-2.98,0.15,30.18
85187,0.02,-0.35,0.99,-13.16,-4.69,1.91,30.13
85197,0.02,-0.37,1.00,-14.58,-3.08,2.60,30.13
85207,0.05,-0.37,1.02,-12.38,-2.17,2.90,30.13
85217,0.07,-0.39,1.03,-7.85,2.92,2.79,30.13
85227,0.06,-0.41,1.04,-4.18,9.51,3.28,30.13
85237,0.05,-0.41,1.08,-3.83,12.98,2.29,30.13
85247,0.01,-0.41,1.09,-6.32,13.31,0.69,30.18
85257,-0.03,-0.41,1.09,-9.28,7.31,0.96,30.08
85267,-0.03,-0.38,1.08,-8.87,2.31,2.73,30.18
85277,-0.00,-0.38,1.05,-6.93,-1.42,4.50,30.08
85287,0.04,-0.36,1.01,-4.50,-2.27,5.16,30.18
85297,0.08,-0.36,0.97,-4.43,0.40,4.11,30.08
85307,0.10,-0.38,0.96,-4.98,7.56,3.30,30.13
85317,0.09,-0.40,1.00,-5.63,15.04,2.82,30.13
85327,0.04,-0.44,1.06,-4.73,17.62,1.53,30.22
85337,0.01,-0.44,1.10,-2.23,14.21,-0.82,30.27
85347,-0.01,-0.43,1.11,0.63,6.63,-3.56,30.13
85357,-0.01,-0.39,1.08,3.65,-0.69,-3.98,30.04
85367,0.02,-0.35,1.02,5.28,-0.26,-2.34,30.18
85377,0.04,-0.34,0.95,3.71,5.22,1.74,30.18
85387,0.06,-0.33,0.92,0.29,14.12,5.22,30.27
85397,0.07,-0.34,0.93,-5.54,22.60,6.79,30.08
85407,0.06,-0.37,0.98,-9.79,25.53,6.12,30.18
85417,0.03,-0.41,1.04,-9.95,22.37,4.76,30.13
85427,0.01,-0.42,1.11,-7.47,13.94,2.69,30.13
85437,-0.01,-0.42,1.13,-3.98,2.49,-0.09,30.22
85447,-0.01,-0.42,1.14,-0.58,-12.67,-3.48,30.22
85457,-0.02,-0.42,1.13,1.92,-27.39,-7.59,30.04
85467,-0.01,-0.41,1.09,3.04,-37.01,-11.10,30.18
85477,0.00,-0.38,1.03,6.79,-38.99,-10.03,30.18
85487,0.02,-0.36,0.96,10.00,-29.51,-6.44,30.18
85497,0.04,-0.33,0.90,11.65,-12.35,-3.13,30.08
85507,0.04,-0.31,0.87,10.76,3.39,-2.35,30.08
85517,0.01,-0.30,0.87,6.75,12.34,-3.16,30.08
85527,-0.03,-0.30,0.88,0.72,14.17,-4.23,30.18
85537,-0.08,-0.30,0.91,-3.18,10.27,-4.21,30.18
85547,-0.12,-0.29,0.94,-4.76,6.40,-1.97,30.13
85557,-0.12,-0.30,0.95,-4.98,2.38,0.98,30.13
85567,-0.11,-0.32,0.97,-4.75,-2.38,3.27,30.13
85577,-0.09,-0.33,0.97,-5.04,-7.51,3.91,30.13
85587,-0.05,-0.33,0.95,-4.99,-11.31,4.08,30.13
85597,-0.03,-0.32,0.92,-4.49,-11.95,5.77,30.18
85607,0.01,-0.31,0.89,-4.18,-7.07,7.91,30.08
85617,0.04,-0.30,0.89,-5.91,-0.23,9.27,30.08
85627,0.04,-0.30,0.90,-8.63,3.53,9.22,30.08
85637,0.03,-0.31,0.92,-11.59,5.01,8.15,30.18
85647,0.01,-0.32,0.97,-12.02,-1.24,7.82,30.08
85657,0.03,-0.33,0.95,-13.04,2.81,6.95,30.13
85667,0.03,-0.34,1.00,-11.22,-1.80,6.34,30.04
85677,0.04,-0.37,1.00,-10.75,-2.63,5.83,30.22
85687,0.03,-0.37,1.02,-10.73,-6.70,5.11,30.27
85697,0.05,-0.36,0.99,-10.20,-7.63,5.76,30.13
85707,0.07,-0.37,1.00,-9.63,-5.39,5.88,30.13
85717,0.07,-0.36,1.00,-9.94,-3.08,6.52,30.18
85727,0.07,-0.38,1.02,-9.66,-1.19,6.75,30.18
85737,0.08,-0.39,1.03,-9.11,0.64,6.21,30.08
85747,0.09,-0.39,1.04,-8.49,2.32,4.98,30.18
85757,0.08,-0.38,1.03,-7.59,2.66,3.37,30.18
85767,0.07,-0.36,1.02,-7.74,2.24,2.38,30.22
85777,0.07,-0.37,1.02,-7.71,1.88,1.62,30.13
85787,0.06,-0.39,1.04,-8.03,1.82,1.11,30.22
85797,0.06,-0.39,1.05,-7.11,1.98,1.18,30.13
85807,0.05,-0.38,1.05,-5.68,1.22,0.89,30.22
85817,0.05,-0.38,1.05,-4.43,0.34,-0.24,30.18
85827,0.05,-0.37,1.04,-3.91,-1.71,-1.42,30.18
85837,0.06,-0.36,1.02,-4.37,-1.51,-1.60,30.18
85847,0.06,-0.36,1.01,-5.57,-0.43,-1.60,30.08
85857,0.06,-0.37,1.02,-6.66,0.35,-1.71,30.08
85867,0.05,-0.36,1.02,-6.02,0.84,-1.60,30.18
85877,0.04,-0.36,1.02,-5.60,0.46,-1.80,30.13
85887,0.05,-0.36,1.03,-4.98,-0.35,-1.86,30.13
85897,0.05,-0.35,1.02,-4.61,-0.26,-2.44,30.22
85907,0.04,-0.36,1.02,-5.92,0.15,-2.24,30.08
85917,0.02,-0.35,1.04,-6.61,0.79,-2.09,30.13
85927,0.03,-0.38,1.05,-5.63,3.33,-1.04,30.18
85937,0.02,-0.38,1.04,-3.74,4.02,-1.05,30.18
85947,0.02,-0.38,1.04,-2.41,3.37,-1.15,30.08
85957,0.02,-0.36,1.03,-2.40,1.19,-1.40,30.18
85967,0.04,-0.36,1.02,-3.50,-0.21,-1.83,30.08
85977,0.02,-0.37,1.01,-4.23,-0.63,-1.37,30.08
85987,0.03,-0.37,1.03,-4.75,0.26,-0.52,30.13
85997,0.04,-0.38,1.01,-3.76,0.56,-0.06,30.13
86007,0.05,-0.38,1.00,-2.84,0.17,-1.16,30.13
86017,0.05,-0.37,1.00,-1.91,-0.63,-2.34,30.13
86027,0.05,-0.36,0.99,-1.48,0.53,-2.41,30.13
86037,0.05,-0.36,0.98,-2.52,2.78,-2.11,30.18
86047,0.04,-0.37,1.00,-3.79,4.38,-1.97,30.08
86057,0.02,-0.37,1.01,-4.14,4.21,-2.20,30.18
86067,0.01,-0.36,1.01,-4.15,2.15,-2.24,30.18
86077,0.03,-0.36,1.00,-4.75,0.35,-2.03,30.18
86087,0.02,-0.36,1.00,-5.22,-1.07,-1.18,30.18
86097,0.03,-0.38,0.99,-5.65,-0.50,-0.73,30.18
86107,0.04,-0.39,1.01,-5.39,0.53,-1.07,30.13
86117,0.03,-0.40,1.04,-3.56,-1.76,-2.06,30.22
86127,0.05,-0.39,1.01,-1.66,0.20,-1.88,30.13
86137,0.02,-0.34,1.02,0.26,-6.15,-1.10,30.22
86147,0.05,-0.36,0.96,-3.18,-0.18,-1.69,30.13
86157,0.06,-0.37,0.99,-3.94,-1.18,-2.24,30.18
86167,0.06,-0.37,0.99,-4.52,2.27,-1.60,30.08
86177,0.05,-0.37,0.99,-4.49,4.08,-1.05,30.18
86187,0.04,-0.37,0.99,-4.58,6.05,-0.64,30.18
86197,0.05,-0.37,0.99,-5.18,5.62,-0.69,30.18
86207,0.04,-0.38,1.00,-5.08,4.58,-1.48,30.13
86217,0.03,-0.39,1.03,-5.11,1.92,-2.49,30.13
86227,0.02,-0.38,1.02,-3.82,0.50,-2.78,30.13
86237,0.04,-0.37,1.01,-2.84,2.84,-2.00,30.22
86247,0.03,-0.36,1.01,-2.56,4.73,-1.76,30.22
86257,0.03,-0.35,1.02,-3.11,6.44,-1.42,30.18
86267,0.01,-0.35,1.02,-4.38,6.15,-0.93,30.18
86277,0.00,-0.36,1.03,-4.56,5.02,-0.14,30.08
86287,0.00,-0.37,1.05,-3.56,3.11,0.40,30.18
86297,0.01,-0.37,1.05,-1.80,2.32,0.58,30.08
86307,0.01,-0.37,1.04,-1.56,0.79,0.70,30.18
86317,0.02,-0.36,1.02,-1.30,-0.61,1.04,30.13
86327,0.03,-0.36,1.00,-2.29,-0.26,1.76,30.13
86337,0.04,-0.36,0.98,-3.37,0.76,2.92,30.22
86347,0.04,-0.36,1.00,-4.12,2.32,3.50,30.13
86357,0.05,-0.36,0.97,-3.71,3.05,4.46,30.04
86367,0.05,-0.34,0.95,-4.34,4.55,5.68,30.13
